loggingTime,loggingSample,identifierForVendor,accelerometerTimestamp_sinceReboot,accelerometerAccelerationX,accelerometerAccelerationY,accelerometerAccelerationZ,gyroTimestamp_sinceReboot,gyroRotationX,gyroRotationY,gyroRotationZ,label
1537844485.753644,1,0,2586.210419125,-0.02398681640625,-0.3931121826171875,-0.9253387451171875,2586.208933125,-0.06699927407199546,0.09321543184273548,-0.02269625775798229,0
1537844485.760074,2,0,2586.220235125,-0.022430419921875,-0.401702880859375,-0.9383087158203125,2586.218937125,-0.08800735401497652,0.0697162310160943,-0.04191362818399407,0
1537844485.760644,3,0,2586.230034125,-0.01177978515625,-0.3974761962890625,-0.9497833251953125,,,,,0
1537844485.761109,4,0,2586.239835125,-0.00390625,-0.383087158203125,-0.9545135498046875,2586.228961125,-0.09848316447891221,0.05053028589094545,-0.05253165145014,0
1537844485.761561,5,0,2586.249636125,-0.003753662109375,-0.3719482421875,-0.9601287841796875,2586.248964125,-0.02452398521410367,-0.08229034610290342,-0.06888905318151568,0
1537844485.761834,6,0,2586.259438125,-0.0031890869140625,-0.37579345703125,-0.96875,,,,,0
1537844485.762137,7,0,2586.269244125,-0.00701904296875,-0.386260986328125,-0.9724578857421875,2586.258982125,0.02387151074703426,-0.1504608784223157,-0.09558324836792494,0
1537844485.762561,8,0,2586.279042125,-0.009918212890625,-0.3968505859375,-0.96710205078125,2586.278983125,0.05024106659656284,-0.1595209524507653,-0.159173143612401,0
1537844485.76283,9,0,2586.288836125,-0.01568603515625,-0.40771484375,-0.9459381103515625,,,,,0
1537844485.763281,10,0,2586.298662125,-0.0202789306640625,-0.4214935302734375,-0.9324951171875,2586.289003125,0.003486610499131739,-0.1002304644701132,-0.1771452199126917,0
1537844485.763822,11,0,2586.308464125,-0.0226898193359375,-0.43792724609375,-0.9242401123046875,2586.308998125,-0.1116807255769089,-0.005752960586789171,-0.1801007960904616,0
1537844485.764186,12,0,2586.318254125,-0.0258941650390625,-0.4541473388671875,-0.9230499267578125,2586.319023125,-0.06088146041586543,-0.1040976406890173,-0.1383536154745975,0
1537844485.76446,13,0,2586.328069125,-0.03179931640625,-0.4642333984375,-0.928802490234375,,,,,0
1537844485.764846,14,0,2586.337869125,-0.0275115966796875,-0.4671630859375,-0.917388916015625,2586.339011125,0.09998944839146102,-0.1649524694939819,-0.04887885969898732,0
1537844485.765412,15,0,2586.347674125,-0.030975341796875,-0.45330810546875,-0.886383056640625,2586.349044125,0.1183679230740979,0.06126468929672783,-0.02375246744630772,0
1537844485.765786,16,0,2586.357472125,-0.037322998046875,-0.4386138916015625,-0.835540771484375,,,,,0
1537844485.766109,17,0,2586.367274125,-0.0443267822265625,-0.4586639404296875,-0.810791015625,2586.359036125,0.1005124932295526,0.2907016098453434,0.003109240572667511,0
1537844485.766459,18,0,2586.377054125,-0.04595947265625,-0.481201171875,-0.8230133056640625,2586.369040125,0.06182208891288142,0.3905669549300067,0.01474831980074981,0
1537844485.766802,19,0,2586.386876125,-0.0448760986328125,-0.48370361328125,-0.8536529541015625,2586.379066125,0.02986681899302064,0.3641044547584343,0.01994681024858449,0
1537844485.767232,20,0,2586.396678125,-0.041717529296875,-0.4806671142578125,-0.8819732666015625,2586.399070125,-0.001520664982435245,0.1740796551819015,0.007200921271465252,0
1537844485.76804,21,0,2586.406477125,-0.033935546875,-0.471893310546875,-0.910980224609375,2586.409087125,0.01919233671176504,0.0593040701022115,-0.01196877857103411,0
1537844485.768831,22,0,2586.416279125,-0.0234832763671875,-0.455535888671875,-0.9303436279296875,,,,,0
1537844485.809375,23,0,2586.426081125,-0.02557373046875,-0.4496002197265625,-0.9350738525390625,2586.419084125,0.05781562936896621,0.006104231534570622,-0.02608992393507027,0
1537844485.815905,24,0,2586.435876125,-0.0351715087890625,-0.45208740234375,-0.9228668212890625,2586.429088125,0.09831964638798135,0.05690962196612126,-0.03777640743055598,0
1537844485.816837,25,0,2586.445681125,-0.04278564453125,-0.453887939453125,-0.905975341796875,2586.439108125,0.1279979135758244,0.1767135214999898,-0.04689560363520531,0
1537844485.817304,26,0,2586.455482125,-0.0445709228515625,-0.45294189453125,-0.895660400390625,2586.459120125,0.1076955713217143,0.34523675738355,-0.06967868044472418,0
1537844485.817609,27,0,2586.465282125,-0.0439300537109375,-0.4505615234375,-0.9014434814453125,,,,,0
1537844485.825147,28,0,2586.475085125,-0.033233642578125,-0.4561309814453125,-0.9258880615234375,2586.469110125,0.06843631579620221,0.3239711497631583,-0.07737974336890631,0
1537844485.832871,29,0,2586.484861125,-0.0142059326171875,-0.455780029296875,-0.9539031982421875,2586.479134125,0.02192314209353229,0.2432371550012971,-0.09110141456943058,0
1537844485.843509,30,0,2586.494660125,0.0131378173828125,-0.4434356689453125,-0.98162841796875,2586.489138125,-0.01490304946008342,0.1369970012153111,-0.108794125271372,0
1537844485.878223,31,0,2586.504484125,0.0311737060546875,-0.429229736328125,-0.9968109130859375,2586.499129125,-0.02085308396753845,0.0445158028851105,-0.1284045782742795,0
1537844485.884454,32,0,2586.514285125,0.0422821044921875,-0.4290008544921875,-1.003067016601562,2586.519161125,0.08441474970445963,-0.04443750594906217,-0.1010861381283557,0
1537844485.885083,33,0,2586.524085125,0.0521697998046875,-0.432586669921875,-1.004043579101562,2586.529169125,0.1755465243103171,-0.1257611245762668,-0.05159501769475913,0
1537844485.885457,34,0,2586.533885125,0.0641021728515625,-0.4386749267578125,-0.99884033203125,,,,,0
1537844485.892802,35,0,2586.543686125,0.0693206787109375,-0.44927978515625,-0.9966888427734375,2586.539178125,0.2676173295165366,-0.1974616769205792,0.00635723183812815,0
1537844485.904917,36,0,2586.553485125,0.0745391845703125,-0.45538330078125,-0.9789581298828125,2586.549182125,0.3373820300644703,-0.2162127278397181,0.05089753580526737,0
1537844485.912473,37,0,2586.563286125,0.0786895751953125,-0.455657958984375,-0.94976806640625,2586.559168125,0.3689729795472082,-0.1937332513944682,0.07555840749940113,0
1537844485.922977,38,0,2586.573077125,0.07818603515625,-0.4528350830078125,-0.93121337890625,2586.579184125,0.335960434674586,-0.1312014300510807,0.06516116028762277,0
1537844485.933921,39,0,2586.582888125,0.072235107421875,-0.451904296875,-0.9082183837890625,,,,,0
1537844485.95723,40,0,2586.592688125,0.0568389892578125,-0.4550933837890625,-0.9022064208984375,2586.589211125,0.2955927715033829,-0.1439598358853233,0.0595157914088728,0
1537844485.957882,41,0,2586.602491125,0.04425048828125,-0.45751953125,-0.896240234375,2586.609224125,0.1947718842195991,-0.2214836562692029,0.04521328477460225,0
1537844485.961495,42,0,2586.612290125,0.031890869140625,-0.4575347900390625,-0.8953857421875,,,,,0
1537844485.9772,43,0,2586.622092125,0.020721435546875,-0.4561614990234375,-0.8924560546875,2586.619233125,0.1395954474909014,-0.2629096596576035,0.03643497318948306,0
1537844485.991171,44,0,2586.631891125,0.0104827880859375,-0.45513916015625,-0.8852386474609375,2586.639244125,0.02740765604244147,-0.2668181148734037,0.06727837335423577,0
1537844485.99159,45,0,2586.641693125,0.0034027099609375,-0.4494781494140625,-0.877777099609375,,,,,0
1537844486.000704,46,0,2586.651495125,-0.0080108642578125,-0.4481964111328125,-0.86798095703125,,,,,0
1537844486.014902,47,0,2586.661292125,-0.0130157470703125,-0.440948486328125,-0.8614349365234375,2586.659262125,-0.02012284519663872,-0.1455326988251241,0.1010408643898243,0
1537844486.037299,48,0,2586.671092125,-0.0197296142578125,-0.4285125732421875,-0.8490447998046875,2586.669266125,-0.01282791433869367,-0.07337887646328027,0.1016392766867651,0
1537844486.037823,49,0,2586.680899125,-0.023468017578125,-0.40924072265625,-0.8384552001953125,,,,,0
1537844486.042735,50,0,2586.690701125,-0.023651123046875,-0.3919219970703125,-0.829193115234375,2586.689267125,0.02993020222696453,0.06103965218461614,0.06590764434117198,0
1537844486.049738,51,0,2586.700503125,-0.022186279296875,-0.373809814453125,-0.8182830810546875,2586.699271125,0.02808250106266755,0.1392473723364281,0.03014085826918979,0
1537844486.059595,52,0,2586.710304125,-0.0150909423828125,-0.363250732421875,-0.8057098388671875,,,,,0
1537844486.074598,53,0,2586.720109125,-0.01361083984375,-0.365142822265625,-0.7912139892578125,2586.709295125,0.008071508631812154,0.2090320465925374,0.0006439523515811598,0
1537844486.079025,54,0,2586.729909125,-0.0064697265625,-0.365203857421875,-0.7823638916015625,2586.729281125,-0.04701864167756697,0.3762695083018073,-0.05018833600697928,0
1537844486.09389,55,0,2586.739702125,0.010101318359375,-0.3640594482421875,-0.7710113525390625,,,,,0
1537844486.141903,56,0,2586.749499125,0.017333984375,-0.3710174560546875,-0.756744384765625,2586.739316125,-0.07701435766734745,0.4675307125366426,-0.05118116246136081,0
1537844486.215587,57,0,2586.759294125,0.0343475341796875,-0.3735198974609375,-0.739501953125,2586.759330125,-0.09490973492824389,0.670507796074776,-0.01666286630840778,0
1537844486.258552,58,0,2586.769091125,0.0437774658203125,-0.3733673095703125,-0.7259674072265625,2586.769337125,-0.08463579207493621,0.7438701609392977,0.001004544363177889,0
1537844486.282362,59,0,2586.778918125,0.052642822265625,-0.38250732421875,-0.716796875,,,,,0
1537844486.32476,60,0,2586.788720125,0.0587310791015625,-0.3912353515625,-0.708221435546875,2586.789328125,-0.07971906407043192,0.7611045416176365,0.03075871164208818,0
1537844486.325304,61,0,2586.798513125,0.0625457763671875,-0.4019317626953125,-0.7026824951171875,,,,,0
1537844486.325698,62,0,2586.808304125,0.0658721923828125,-0.4085540771484375,-0.7098541259765625,2586.799357125,-0.1211759601274774,0.6413531063572424,0.04508412146173341,0
1537844486.326286,63,0,2586.818111125,0.07391357421875,-0.4122772216796875,-0.7093505859375,2586.819370125,-0.3160783392404904,0.2254166125670319,0.03235847250889878,0
1537844486.326655,64,0,2586.827898125,0.0854949951171875,-0.41009521484375,-0.7033843994140625,,,,,0
1537844486.327012,65,0,2586.837712125,0.09698486328125,-0.4120025634765625,-0.688873291015625,2586.829379125,-0.4644686099152696,-0.04303588426735346,0.02219851295024648,0
1537844486.327445,66,0,2586.847511125,0.0948028564453125,-0.4271240234375,-0.6842803955078125,2586.849391125,-0.9336238507168605,-0.1649189136642469,0.006584133163002901,0
1537844486.328046,67,0,2586.857305125,0.1068572998046875,-0.431304931640625,-0.6632232666015625,,,,,0
1537844486.328445,68,0,2586.867113125,0.121734619140625,-0.426025390625,-0.65478515625,2586.859399125,-1.242468511804478,0.2492407190466628,0.02481373714070429,0
1537844486.32889,69,0,2586.876913125,0.1303558349609375,-0.410064697265625,-0.6811981201171875,2586.879386125,-1.586432810819188,1.173146961261933,0.2114616484550167,0
1537844486.329278,70,0,2586.886725125,0.1357574462890625,-0.39691162109375,-0.74676513671875,2586.889420125,-1.577950642747285,1.529593762621954,0.3250081846916351,0
1537844486.329503,71,0,2586.896529125,0.147674560546875,-0.3762054443359375,-0.8495330810546875,,,,,0
1537844486.329882,72,0,2586.906330125,0.155120849609375,-0.3494873046875,-0.969482421875,2586.909433125,-1.217859838067709,1.769890255147585,0.5272036304498301,0
1537844486.330145,73,0,2586.916124125,0.1639556884765625,-0.3280792236328125,-1.08770751953125,,,,,0
1537844486.330446,74,0,2586.925930125,0.1598052978515625,-0.3220367431640625,-1.197799682617188,2586.919443125,-0.9128495963175884,1.562470486278982,0.6107328790918384,0
1537844486.330907,75,0,2586.935732125,0.1649017333984375,-0.29498291015625,-1.286300659179688,2586.939454125,-0.2829763121552415,0.5989422659977306,0.6446695408627181,0
1537844486.331143,76,0,2586.945513125,0.166412353515625,-0.26953125,-1.34967041015625,,,,,0
1537844486.331484,77,0,2586.955335125,0.1612701416015625,-0.24749755859375,-1.381057739257812,2586.949435125,-0.05652026781475167,0.09430333314803285,0.5879178443492385,0
1537844486.331904,78,0,2586.965136125,0.1309051513671875,-0.2437591552734375,-1.381881713867188,2586.969474125,0.1162949184815802,-0.4549555321853975,0.3998984050735354,0
1537844486.332174,79,0,2586.974936125,0.086456298828125,-0.2764739990234375,-1.359329223632812,,,,,0
1537844486.334552,80,0,2586.984737125,0.03875732421875,-0.3334503173828125,-1.34503173828125,2586.979456125,0.04543033240344371,-0.5714821456818145,0.295630854706971,0
1537844486.36214,81,0,2586.994519125,-0.0035247802734375,-0.3847198486328125,-1.343551635742188,2586.999494125,-0.2813384680848428,-0.7039456477734838,0.05034839198849304,0
1537844486.363097,82,0,2587.004338125,-0.0308685302734375,-0.424652099609375,-1.340911865234375,,,,,0
1537844486.363542,83,0,2587.014139125,-0.044921875,-0.46343994140625,-1.343521118164062,2587.009485125,-0.4533131607411456,-0.747342923000761,-0.07042143607274728,0
1537844486.377002,84,0,2587.023943125,-0.056732177734375,-0.485809326171875,-1.329132080078125,2587.029501125,-0.5487528647263152,-0.781154948832625,-0.1819548888413748,0
1537844486.382972,85,0,2587.033743125,-0.072052001953125,-0.4974365234375,-1.315994262695312,,,,,0
1537844486.438598,86,0,2587.043544125,-0.07830810546875,-0.4935150146484375,-1.304397583007812,2587.039502125,-0.423042073894651,-0.8172919142961282,-0.1803948090748064,0
1537844486.444723,87,0,2587.053332125,-0.074462890625,-0.478271484375,-1.283004760742188,2587.059537125,0.06479897037937199,-0.8875993670742202,-0.1791276770281467,0
1537844486.445316,88,0,2587.063146125,-0.0738525390625,-0.462677001953125,-1.260726928710938,,,,,0
1537844486.445899,89,0,2587.072924125,-0.0747833251953125,-0.444427490234375,-1.228973388671875,2587.069546125,0.3247852781083955,-0.8772684325735848,-0.1935875764828409,0
1537844486.446362,90,0,2587.082734125,-0.0724334716796875,-0.43011474609375,-1.196441650390625,2587.079554125,0.5486964057112056,-0.823567387088791,-0.225790520384079,0
1537844486.446725,91,0,2587.092550125,-0.071502685546875,-0.423553466796875,-1.151275634765625,2587.089558125,0.7278078374567027,-0.6765502422720567,-0.2676772506410633,0
1537844486.491394,92,0,2587.102351125,-0.06103515625,-0.415771484375,-1.0924072265625,2587.099549125,0.8512544087295817,-0.4402972272294924,-0.3012155035128672,0
1537844486.497858,93,0,2587.112148125,-0.0443878173828125,-0.401702880859375,-1.033660888671875,,,,,0
1537844486.528298,94,0,2587.121935125,-0.0367279052734375,-0.4027099609375,-0.9987945556640625,2587.119569125,0.9738125494628103,-0.02648380546029298,-0.293477422649533,0
1537844486.528951,95,0,2587.131752125,-0.0126800537109375,-0.4186859130859375,-0.9918060302734375,2587.129566125,0.95699735034005,0.0429834199938789,-0.2377015083594584,0
1537844486.529359,96,0,2587.141545125,0.01641845703125,-0.4344024658203125,-1.00531005859375,2587.139596125,0.8910921028438591,0.01613822357366217,-0.1571997412446522,0
1537844486.529964,97,0,2587.151349125,0.057464599609375,-0.4392547607421875,-1.027633666992188,2587.149600125,0.806530346647227,-0.1381948910736288,-0.09617580171046756,0
1537844486.530298,98,0,2587.161150125,0.080657958984375,-0.4326019287109375,-1.0555419921875,,,,,0
1537844486.530802,99,0,2587.170949125,0.08270263671875,-0.420166015625,-1.071792602539062,2587.179618125,0.7660811907466676,-0.7933905761448851,-0.157729443985469,0
1537844486.534599,100,0,2587.180748125,0.066986083984375,-0.4027862548828125,-1.057022094726562,,,,,0
1537844486.543275,101,0,2587.190552125,0.0362091064453125,-0.378570556640625,-1.004867553710938,2587.189611125,0.8007411670696128,-0.8414976517599675,-0.1964352946364626,0
1537844486.549874,102,0,2587.200353125,-0.0013275146484375,-0.3581695556640625,-0.9419708251953125,,,,,0
1537844486.606657,103,0,2587.210153125,-0.0242919921875,-0.338653564453125,-0.885101318359375,2587.209617125,0.8990826513785328,-0.9283822170593665,-0.2970599069479076,0
1537844486.607667,104,0,2587.219955125,-0.0378570556640625,-0.3223114013671875,-0.831695556640625,,,,,0
1537844486.642328,105,0,2587.229756125,-0.0473175048828125,-0.3142242431640625,-0.7809295654296875,2587.219634125,0.9167575189011707,-0.9553259504399162,-0.343557101684037,0
1537844486.726633,106,0,2587.239557125,-0.0500946044921875,-0.3110809326171875,-0.732269287109375,2587.239646125,0.8846440572125592,-0.8902449513011048,-0.4264162989957814,0
1537844486.743831,107,0,2587.249346125,-0.0573883056640625,-0.3092498779296875,-0.682281494140625,,,,,0
1537844486.772133,108,0,2587.259159125,-0.0690765380859375,-0.317535400390625,-0.641357421875,2587.249655125,0.8345814224090317,-0.8139208849883059,-0.4381573772936137,0
1537844486.843977,109,0,2587.268959125,-0.07208251953125,-0.323974609375,-0.602874755859375,2587.269675125,0.6953556216774333,-0.5558227584721487,-0.4180824689965964,0
1537844486.874838,110,0,2587.278734125,-0.0788421630859375,-0.328704833984375,-0.5744781494140625,2587.279693125,0.6226380081128197,-0.4051147387006735,-0.4188942004968526,0
1537844486.909113,111,0,2587.288562125,-0.0876312255859375,-0.3313140869140625,-0.5453643798828125,,,,,0
1537844486.943888,112,0,2587.298357125,-0.0923004150390625,-0.329345703125,-0.524749755859375,2587.299704125,0.4842660168267006,-0.1020552624490355,-0.4747966149387058,0
1537844486.975635,113,0,2587.308153125,-0.101165771484375,-0.3291015625,-0.5040435791015625,,,,,0
1537844487.009328,114,0,2587.317967125,-0.102813720703125,-0.328460693359375,-0.487945556640625,2587.309706125,0.4130930366943329,0.02818556539685362,-0.5105993536854041,0
1537844487.075176,115,0,2587.327746125,-0.1023101806640625,-0.327301025390625,-0.473358154296875,2587.329725125,0.2481703946045599,0.1849983493351173,-0.5475626980351589,0
1537844487.077759,116,0,2587.337552125,-0.0936126708984375,-0.3288421630859375,-0.4615325927734375,,,,,0
1537844487.106791,117,0,2587.347370125,-0.0833892822265625,-0.3287353515625,-0.444732666015625,2587.339734125,0.1297497409408785,0.2625666445092013,-0.5429663483097911,0
1537844487.144223,118,0,2587.357176125,-0.0588836669921875,-0.32623291015625,-0.4324798583984375,2587.359746125,-0.2753042776869413,0.5040274710634155,-0.3805875576932618,0
1537844487.17726,119,0,2587.366975125,-0.0398101806640625,-0.3255767822265625,-0.430206298828125,,,,,0
1537844487.192553,120,0,2587.376781125,-0.0113372802734375,-0.3392791748046875,-0.446258544921875,2587.369754125,-0.5234794659814633,0.6307284251883714,-0.226393460054873,0
1537844487.264994,121,0,2587.386584125,0.0100860595703125,-0.355926513671875,-0.4839935302734375,2587.389767125,-0.9828752866523499,0.8465017314482264,0.02831712555470353,0
1537844487.271446,122,0,2587.396380125,0.0312652587890625,-0.3622283935546875,-0.528839111328125,,,,,0
1537844487.31176,123,0,2587.406187125,0.04144287109375,-0.3577117919921875,-0.5719451904296875,2587.399777125,-1.168092814145181,0.9765675896104973,0.08617350128834796,0
1537844487.358918,124,0,2587.415972125,0.0470123291015625,-0.344635009765625,-0.6077728271484375,2587.419787125,-1.300203181076306,1.038143868754764,0.0811603668523828,0
1537844487.378276,125,0,2587.425768125,0.0524139404296875,-0.32281494140625,-0.6402435302734375,,,,,0
1537844487.410047,126,0,2587.435593125,0.0563812255859375,-0.2982635498046875,-0.668365478515625,2587.429772125,-1.240436519892747,0.8677481643087694,0.01379703865937351,0
1537844487.477893,127,0,2587.445391125,0.0693817138671875,-0.2609100341796875,-0.67938232421875,2587.449809125,-1.089896545586056,0.2898347509105226,-0.1763665116099525,0
1537844487.501826,128,0,2587.455195125,0.0884857177734375,-0.2362823486328125,-0.6795806884765625,,,,,0
1537844487.508648,129,0,2587.464997125,0.1344146728515625,-0.2273712158203125,-0.671966552734375,2587.459802125,-1.117190218333842,0.1952794827233682,-0.1919183071115792,0
1537844487.579129,130,0,2587.474779125,0.17974853515625,-0.2414398193359375,-0.6685638427734375,2587.479829125,-1.466920793740792,0.8358637344739048,-0.007463775271056073,0
1537844487.580532,131,0,2587.484576125,0.234344482421875,-0.2452239990234375,-0.689697265625,,,,,0
1537844487.608967,132,0,2587.494390125,0.294586181640625,-0.2348175048828125,-0.78411865234375,2587.489832125,-1.677035149000337,1.434961795395405,0.1744716724943611,0
1537844487.671291,133,0,2587.504200125,0.3361053466796875,-0.2404632568359375,-0.94024658203125,2587.509850125,-1.897451143988528,2.294263744306988,0.6260425932503769,0
1537844487.67819,134,0,2587.513985125,0.3618011474609375,-0.2551727294921875,-1.172332763671875,,,,,0
1537844487.679179,135,0,2587.523783125,0.3886871337890625,-0.22955322265625,-1.453369140625,2587.519858125,-1.96832212165328,2.334664696991817,0.7518037178266438,0
1537844487.679757,136,0,2587.533587125,0.44140625,-0.161102294921875,-1.751739501953125,2587.539870125,-1.547036136181428,1.473198663378436,0.6730921275965888,0
1537844487.68022,137,0,2587.543396125,0.5011138916015625,-0.0756988525390625,-2.012176513671875,,,,,0
1537844487.680651,138,0,2587.553207125,0.5458221435546875,-0.0107574462890625,-2.204910278320312,2587.549879125,-0.8758801266973264,0.5231625498117439,0.5539228593504861,0
1537844487.681127,139,0,2587.562994125,0.54156494140625,0.00439453125,-2.291915893554688,2587.559888125,-0.02424009224190123,-0.4993914402378056,0.4051842472051246,0
1537844487.681521,140,0,2587.572805125,0.490631103515625,-0.04034423828125,-2.262054443359375,2587.569892125,0.8001265094900225,-1.341356476769082,0.2782502664847869,0
1537844487.681882,141,0,2587.582607125,0.3981475830078125,-0.1328125,-2.129425048828125,2587.579889125,1.375854532897751,-1.925661476783519,0.235266580174799,0
1537844487.682236,142,0,2587.592413125,0.294036865234375,-0.259918212890625,-1.943496704101562,2587.589908125,1.656389258965607,-2.325594769267334,0.2645861195638083,0
1537844487.682596,143,0,2587.602209125,0.2137451171875,-0.385650634765625,-1.711883544921875,2587.599912125,1.665516444653527,-2.436529543422912,0.3198517721890237,0
1537844487.682967,144,0,2587.612011125,0.1387176513671875,-0.50115966796875,-1.464981079101562,2587.609919125,1.464088788237602,-2.141004416211217,0.3688411530732493,0
1537844487.683331,145,0,2587.621815125,0.0565032958984375,-0.6183013916015625,-1.230911254882812,2587.619929125,1.115744654494147,-1.489421309158653,0.3550497070521649,0
1537844487.683601,146,0,2587.631630125,-0.033172607421875,-0.7175445556640625,-1.034210205078125,,,,,0
1537844487.683905,147,0,2587.641431125,-0.096923828125,-0.7747039794921875,-0.9098968505859375,2587.629933125,0.7211749684457515,-0.7969296509174914,0.2840072218132112,0
1537844487.684259,148,0,2587.651233125,-0.1463165283203125,-0.7877349853515625,-0.8654327392578125,2587.639941125,0.3938309251620078,-0.3302508836135651,0.2398554730491145,0
1537844487.684691,149,0,2587.661035125,-0.1427154541015625,-0.753265380859375,-0.871551513671875,2587.659956125,0.08139579029274581,-0.03659662706765088,0.3100958141677364,0
1537844487.684964,150,0,2587.670836125,-0.1226348876953125,-0.6882476806640625,-0.8932647705078125,,,,,0
1537844487.685272,151,0,2587.680638125,-0.089752197265625,-0.6130828857421875,-0.920196533203125,2587.669962125,0.08779962744995035,-0.06415794750498992,0.3135648478036736,0
1537844487.6857,152,0,2587.690439125,-0.0669708251953125,-0.5529632568359375,-0.9162139892578125,2587.689956125,0.3145374342337706,-0.05968357055754779,0.2338143584323788,0
1537844487.685966,153,0,2587.700242125,-0.053802490234375,-0.503021240234375,-0.904571533203125,,,,,0
1537844487.686273,154,0,2587.710045125,-0.04461669921875,-0.47198486328125,-0.8893585205078125,2587.699983125,0.4799176073988192,0.02581162360115698,0.1933143361549988,0
1537844487.732196,155,0,2587.719847125,-0.0409088134765625,-0.452239990234375,-0.870819091796875,2587.719993125,0.8755669389531331,0.2794532163491757,0.1038350530055354,0
1537844487.732903,156,0,2587.729632125,-0.027862548828125,-0.4324493408203125,-0.842742919921875,,,,,0
1537844487.733371,157,0,2587.739452125,-0.014617919921875,-0.431121826171875,-0.81195068359375,2587.730003125,1.040634989638424,0.4011903045183328,0.08223814814553787,0
1537844487.733872,158,0,2587.749228125,0.0048065185546875,-0.4309844970703125,-0.7873077392578125,2587.749990125,1.139002572926027,0.4810609024547902,0.12206918435709,0
1537844487.734158,159,0,2587.759050125,0.0216064453125,-0.446319580078125,-0.7716064453125,,,,,0
1537844487.734474,160,0,2587.768856125,0.033172607421875,-0.467529296875,-0.766204833984375,2587.760026125,1.06529000237816,0.4049850427555867,0.1538489519611145,0
1537844487.734911,161,0,2587.778657125,0.03692626953125,-0.4786529541015625,-0.769775390625,2587.780015125,0.7746214157303336,0.1519048443653567,0.1932576108237801,0
1537844487.735222,162,0,2587.788439125,0.0369110107421875,-0.4762115478515625,-0.769012451171875,,,,,0
1537844487.735667,163,0,2587.798254125,0.0323486328125,-0.468902587890625,-0.7679901123046875,2587.790046125,0.636868875713767,0.00741663731976167,0.1630973114786327,0
1537844487.736201,164,0,2587.808059125,0.027130126953125,-0.4484710693359375,-0.7611083984375,2587.800047125,0.5461685332045024,-0.1128690280553022,0.112993663994318,0
1537844487.744643,165,0,2587.817858125,0.0087127685546875,-0.42657470703125,-0.7436981201171875,2587.810051125,0.5109114761651614,-0.185558412112361,0.04924983803883535,0
1537844487.745352,166,0,2587.827662125,-0.021728515625,-0.408843994140625,-0.72064208984375,2587.820067125,0.5150260600493338,-0.1936208659964669,-0.02309946034702029,0
1537844487.745905,167,0,2587.837465125,-0.0391693115234375,-0.3939208984375,-0.696807861328125,2587.830058125,0.5382498900192608,-0.1274879182270742,-0.1032683323255666,0
1537844487.746657,168,0,2587.847261125,-0.046722412109375,-0.3830718994140625,-0.6709136962890625,2587.840062125,0.5484918749394875,-0.01882455416522509,-0.174300431236269,0
1537844487.747067,169,0,2587.857067125,-0.0512847900390625,-0.3840179443359375,-0.66156005859375,2587.850088125,0.5276537046740535,0.104829477356571,-0.2319125950979532,0
1537844487.747882,170,0,2587.866870125,-0.0516357421875,-0.3917388916015625,-0.656982421875,2587.860081125,0.4844119580544369,0.2041568639010384,-0.2821134479620558,0
1537844487.74827,171,0,2587.876650125,-0.049285888671875,-0.40338134765625,-0.6663970947265625,2587.870085125,0.4188172351413493,0.2473368251833651,-0.3235980408944382,0
1537844487.748617,172,0,2587.886477125,-0.04620361328125,-0.41851806640625,-0.685943603515625,2587.880091125,0.3465891105850922,0.2271207693485736,-0.3348413743845347,0
1537844487.748961,173,0,2587.896278125,-0.03851318359375,-0.4367218017578125,-0.7010955810546875,2587.890102125,0.2337451162440367,0.1985581003413648,-0.3325872748378916,0
1537844487.749307,174,0,2587.906080125,-0.0272064208984375,-0.450408935546875,-0.7128143310546875,2587.900106125,0.102813464411381,0.1371506656102087,-0.3260100658937229,0
1537844487.749677,175,0,2587.915884125,-0.02239990234375,-0.455780029296875,-0.722381591796875,2587.910116125,0.004901814302399846,0.02274179781262265,-0.3112380439592714,0
1537844487.750043,176,0,2587.925673125,-0.0248565673828125,-0.4558258056640625,-0.7245941162109375,2587.920133125,-0.05354818003822324,-0.09173338269610638,-0.3013883426676133,0
1537844487.750389,177,0,2587.935490125,-0.02984619140625,-0.443756103515625,-0.71673583984375,2587.930137125,-0.08528933180644165,-0.1586072218807591,-0.3065388962158266,0
1537844487.750731,178,0,2587.945292125,-0.0341949462890625,-0.427978515625,-0.6959686279296875,2587.940149125,-0.1072588129029413,-0.1673450534173091,-0.336531682728408,0
1537844487.751174,179,0,2587.955096125,-0.039764404296875,-0.4154052734375,-0.668975830078125,2587.960165125,-0.1723571225888382,-0.05352527685284856,-0.4296842639694176,0
1537844487.751666,180,0,2587.964898125,-0.0407257080078125,-0.4090728759765625,-0.645965576171875,,,,,0
1537844487.751992,181,0,2587.974687125,-0.03411865234375,-0.3987274169921875,-0.6258392333984375,2587.970148125,-0.2337344635996764,0.07656162028203398,-0.4824329630483991,0
1537844487.752413,182,0,2587.984496125,-0.0214691162109375,-0.3884429931640625,-0.608245849609375,2587.990161125,-0.4279593345313732,0.4499173640351856,-0.5117335939936688,0
1537844487.752681,183,0,2587.99426275,0.0096435546875,-0.3782958984375,-0.59539794921875,,,,,0
1537844487.752984,184,0,2588.00406775,0.041046142578125,-0.374237060546875,-0.60699462890625,2588.00014475,-0.5308361821766983,0.541550345558196,-0.4751193900628234,0
1537844487.821646,185,0,2588.01387275,0.06768798828125,-0.3797760009765625,-0.6367340087890625,2588.02014675,-0.6306621124772284,0.380058653900772,-0.3843649853834302,0
1537844487.822338,186,0,2588.02367375,0.09075927734375,-0.39666748046875,-0.6714630126953125,,,,,0
1537844487.829827,187,0,2588.03348175,0.104766845703125,-0.406524658203125,-0.6874542236328125,2588.03015975,-0.6098489759260411,0.2490055619224088,-0.3235011018307593,0
1537844487.830585,188,0,2588.04327475,0.1147613525390625,-0.41546630859375,-0.67315673828125,2588.05015775,-0.5021235772001179,0.08322191985221314,-0.2241939553105765,0
1537844487.83098,189,0,2588.05308975,0.1113128662109375,-0.4175567626953125,-0.636077880859375,,,,,0
1537844487.831308,190,0,2588.06289375,0.102569580078125,-0.4277191162109375,-0.587890625,2588.06018675,-0.4392490070244371,0.02911660651394532,-0.2188812152519775,0
1537844487.831739,191,0,2588.07269475,0.09423828125,-0.4365081787109375,-0.526153564453125,2588.08019975,-0.400928249467069,-0.1382987543561419,-0.1895289189815601,0
1537844487.832008,192,0,2588.08250075,0.0953369140625,-0.4381866455078125,-0.464996337890625,,,,,0
1537844487.832315,193,0,2588.09230475,0.1067352294921875,-0.4414215087890625,-0.4147491455078125,2588.09020675,-0.5300835728526418,-0.149662995359728,-0.1630653535455518,0
1537844487.832855,194,0,2588.10210275,0.145721435546875,-0.4352264404296875,-0.3701019287109375,2588.11021975,-1.310590574592051,0.497186076539111,-0.01929992841980424,0
1537844487.833176,195,0,2588.11190875,0.2161712646484375,-0.39129638671875,-0.3294830322265625,,,,,0
1537844487.8334,196,0,2588.12171375,0.2821807861328125,-0.3329620361328125,-0.3502197265625,,,,,0
1537844487.833666,197,0,2588.13150075,0.341827392578125,-0.295623779296875,-0.4487457275390625,2588.12022775,-1.906488847463821,1.111870554056409,0.09889728602841953,0
1537844487.834366,198,0,2588.14132175,0.398590087890625,-0.2931365966796875,-0.664031982421875,2588.14023375,-3.085445760959871,2.210124365459243,0.2671523415902087,0
1537844487.834898,199,0,2588.15112375,0.4657745361328125,-0.2831573486328125,-0.9712371826171875,,,,,0
1537844487.835331,200,0,2588.16091175,0.5139312744140625,-0.2291717529296875,-1.337982177734375,2588.15024975,-3.285942908890922,2.341203822732398,0.439915329929175,0
1537844487.835778,201,0,2588.17070675,0.55621337890625,-0.1391448974609375,-1.728363037109375,2588.17026275,-2.683883146521145,1.596900365483744,0.7883654574840145,0
1537844487.836049,202,0,2588.18051775,0.5821685791015625,-0.029083251953125,-2.044570922851562,,,,,0
1537844487.836354,203,0,2588.19031675,0.5787811279296875,0.070770263671875,-2.269149780273438,2588.18026975,-1.995892763154435,0.7215925521046759,0.8435448236899113,0
1537844487.908756,204,0,2588.20011975,0.543365478515625,0.1423187255859375,-2.373916625976562,2588.20026175,-0.1858497619356157,-1.164215251598025,0.3264787822455769,0
1537844487.909634,205,0,2588.20992575,0.493499755859375,0.1299285888671875,-2.317001342773438,,,,,0
1537844487.961944,206,0,2588.21972675,0.424072265625,0.0620269775390625,-2.159988403320312,2588.21029075,0.7377392977938263,-1.829863044999516,-0.01598722233985467,0
1537844488.009319,207,0,2588.22952375,0.3512420654296875,-0.033599853515625,-1.96343994140625,2588.23030075,1.815361333915707,-2.55667725705351,-0.06234486743486398,0
1537844488.026763,208,0,2588.23931775,0.2924652099609375,-0.1598052978515625,-1.756927490234375,,,,,0
1537844488.060308,209,0,2588.24913975,0.2676239013671875,-0.2917633056640625,-1.53741455078125,2588.24031175,1.976463405105653,-2.791768601228582,0.1232676068476256,0
1537844488.127602,210,0,2588.25893375,0.2294769287109375,-0.4490509033203125,-1.327011108398438,2588.26031975,1.654620387369577,-2.795094623113981,0.5706874584125349,0
1537844488.151646,211,0,2588.26873875,0.1678619384765625,-0.595916748046875,-1.110031127929688,,,,,0
1537844488.160591,212,0,2588.27855075,0.111480712890625,-0.6976470947265625,-0.899139404296875,2588.27033275,1.27647974208588,-2.316522977330088,0.6697642414984258,0
1537844488.205689,213,0,2588.28835375,0.0377349853515625,-0.74591064453125,-0.725738525390625,2588.28034175,0.8417336078325485,-1.758022676697974,0.6834883095439311,0
1537844488.226123,214,0,2588.29815775,-0.0219268798828125,-0.73504638671875,-0.6140594482421875,2588.29034575,0.41951498334695,-1.320883425889098,0.6524369164980433,0
1537844488.279538,215,0,2588.30795875,-0.0416717529296875,-0.6677398681640625,-0.550750732421875,2588.30035275,0.0874049469764006,-1.05907817913555,0.5980546344064072,0
1537844488.310014,216,0,2588.31775975,-0.04205322265625,-0.575653076171875,-0.5199432373046875,2588.31036175,-0.08977249718548104,-0.8443512288679873,0.509388148021636,0
1537844488.343655,217,0,2588.32753775,-0.0376129150390625,-0.5019378662109375,-0.5034637451171875,2588.32036575,-0.08009030872638896,-0.5368525293952963,0.3644051256455043,0
1537844488.377606,218,0,2588.33736275,-0.042724609375,-0.4673309326171875,-0.5054168701171875,2588.33035975,0.09500880452079484,-0.1555389939888788,0.1779447008719335,0
1537844488.392341,219,0,2588.34716375,-0.0527801513671875,-0.4651641845703125,-0.524444580078125,2588.34037275,0.3821444416665221,0.2255508358859719,-0.02654399290092877,0
1537844488.464248,220,0,2588.35696675,-0.054840087890625,-0.478271484375,-0.5586395263671875,2588.35037675,0.7330409489987085,0.4890890015608341,-0.2007285766297794,0
1537844488.473342,221,0,2588.36676775,-0.045257568359375,-0.4756011962890625,-0.590545654296875,2588.36038175,1.071913816641405,0.6098170179929602,-0.3260177890608841,0
1537844488.515921,222,0,2588.37655675,-0.0162811279296875,-0.474212646484375,-0.6279144287109375,2588.37040275,1.318080981474008,0.61515638966246,-0.4268850153476353,0
1537844488.542547,223,0,2588.38637075,0.0179901123046875,-0.486907958984375,-0.659912109375,2588.38040675,1.440756301295199,0.5061183188352367,-0.5111117458791353,0
1537844488.595771,224,0,2588.39617275,0.0392913818359375,-0.4712677001953125,-0.661346435546875,2588.39040275,1.433289862863053,0.3930783158379514,-0.5763986073702099,0
1537844488.626322,225,0,2588.40597475,0.0623931884765625,-0.4210662841796875,-0.6373748779296875,2588.40042375,1.257832820765363,0.4141998464433699,-0.5996653142336871,0
1537844488.66157,226,0,2588.41577775,0.06134033203125,-0.38165283203125,-0.62091064453125,2588.41042775,0.9260673974398697,0.6902822998008322,-0.5987467899737188,0
1537844488.693898,227,0,2588.42556875,0.0430755615234375,-0.3392791748046875,-0.5968780517578125,2588.42041775,0.5960905531024737,0.7581931739139619,-0.6207524900610435,0
1537844488.726762,228,0,2588.43536475,-0.002227783203125,-0.3652191162109375,-0.6358489990234375,2588.43044475,0.2782966054877543,0.5386408420672845,-0.6319508161287177,0
1537844488.789944,229,0,2588.44518475,-0.0235137939453125,-0.397857666015625,-0.7193603515625,2588.44044875,0.008666991451553873,0.08791494232515078,-0.6238718506458534,0
1537844488.802823,230,0,2588.45498675,-0.0388336181640625,-0.4193115234375,-0.7889556884765625,2588.45044675,-0.1297465451475704,-0.4827791739901093,-0.6146123058517569,0
1537844488.815383,231,0,2588.46479175,-0.0446014404296875,-0.4190216064453125,-0.8389434814453125,2588.46046575,-0.1442495878119239,-1.187314711945046,-0.6137321311114856,0
1537844488.848334,232,0,2588.47458575,-0.0460205078125,-0.395721435546875,-0.8723907470703125,2588.47046975,-0.03199415207177594,-1.919499720969403,-0.6113448735103386,0
1537844488.849061,233,0,2588.48439175,-0.042327880859375,-0.3486480712890625,-0.9138946533203125,2588.48047675,0.221858363034577,-2.533081649795408,-0.6265097117055768,0
1537844488.849522,234,0,2588.49417175,0.0148468017578125,-0.257293701171875,-0.937713623046875,2588.49048675,0.5278108311783681,-2.964718010843853,-0.5807094662267211,0
1537844488.849919,235,0,2588.50399775,0.087982177734375,-0.1754608154296875,-0.9063262939453125,2588.50049075,0.8141970547933471,-3.162541345040466,-0.3717176333666439,0
1537844488.850325,236,0,2588.51379975,0.1600494384765625,-0.1536712646484375,-0.8834228515625,2588.51047375,1.066515056479596,-3.096101334797387,-0.03720302884786192,0
1537844488.850798,237,0,2588.52358675,0.26751708984375,-0.2663421630859375,-0.86053466796875,2588.53051075,1.125493954612709,-1.726674074874434,0.04048644015582061,0
1537844488.851089,238,0,2588.53340175,0.3404541015625,-0.4005889892578125,-0.7754058837890625,,,,,0
1537844488.851417,239,0,2588.54320375,0.3877105712890625,-0.1426544189453125,-0.7188262939453125,2588.54051975,0.4751058079412641,-1.536495344586894,-0.09653106739988414,0
1537844488.851785,240,0,2588.55299775,0.182861328125,-0.3956146240234375,-0.9467010498046875,2588.55052775,0.05788061049956415,-1.611301941710566,-0.1854841099179478,0
1537844488.852278,241,0,2588.56280775,0.0231781005859375,-0.590911865234375,-0.958740234375,2588.56053175,-0.3121821345657045,-1.052218408799724,0.0206834406061004,0
1537844488.853046,242,0,2588.57261175,-0.2093658447265625,-0.5541229248046875,-0.7591552734375,2588.57054075,-0.9140618672457925,0.9122333408413441,0.3907890625649193,0
1537844488.853659,243,0,2588.58240875,-1.197479248046875,-0.876129150390625,-0.5959320068359375,2588.59055475,-1.827070720596568,1.744119644227216,-0.3983495105835453,0
1537844488.855128,244,0,2588.59221375,-1.359817504882812,-1.083847045898438,-0.48773193359375,,,,,0
1537844488.855738,245,0,2588.60201775,-0.68487548828125,-0.9227752685546875,-0.6198272705078125,2588.60056175,-2.995896436673738,0.9802755087962146,-1.069449327368646,0
1537844488.856195,246,0,2588.61181875,-0.3977203369140625,-0.7126922607421875,-0.7799072265625,2588.61054775,-3.999053825555914,0.5817507622129421,-1.936575377246773,0
1537844488.856621,247,0,2588.62161975,-0.2167205810546875,-0.1927490234375,-1.724136352539062,2588.62055175,-4.457879729753524,-0.2682610155520087,-2.827760424412676,0
1537844488.857228,248,0,2588.63140975,-0.1413421630859375,0.260528564453125,-2.025848388671875,,,,,0
1537844488.857564,249,0,2588.64122075,-0.235992431640625,0.493865966796875,-1.67156982421875,2588.63058275,-4.430179125991173,-1.049493462372355,-3.465154209177297,0
1537844488.858051,250,0,2588.65102275,-0.166717529296875,0.3973846435546875,-1.576324462890625,2588.65057875,-2.891420094477712,-0.533921720615664,-3.980659638222845,0
1537844488.858518,251,0,2588.66079675,-0.4308624267578125,0.2283782958984375,-1.392379760742188,,,,,0
1537844488.85924,252,0,2588.67062375,-0.334197998046875,-0.03125,-1.113998413085938,2588.66060375,-1.588176648700972,-0.262287278910852,-4.014089234122174,0
1537844488.860243,253,0,2588.68039975,-0.3198699951171875,-0.1092376708984375,-0.93243408203125,2588.68060675,-0.1594993808459357,1.746858971724471,-3.128059267878338,0
1537844488.863719,254,0,2588.69021675,-0.264007568359375,-0.063720703125,-0.7883758544921875,,,,,0
1537844488.864293,255,0,2588.70001275,-0.0892181396484375,-0.0642547607421875,-0.704010009765625,2588.69062475,0.1443076447236877,3.100743224577395,-2.869809607496155,0
1537844488.865873,256,0,2588.70983275,-0.025421142578125,-0.043853759765625,-0.74176025390625,2588.70063275,0.4251544932713018,4.229267856510615,-2.781643795396318,0
1537844488.866523,257,0,2588.71963575,0.0521697998046875,-0.0330963134765625,-0.7515106201171875,2588.71063675,0.7373222467671199,5.355347440247032,-2.728299080865377,0
1537844488.867252,258,0,2588.72943675,0.2650299072265625,-0.098419189453125,-0.79498291015625,2588.72064575,1.030530423830446,6.095745638073193,-2.370724164467599,0
1537844488.867891,259,0,2588.73923875,0.4254913330078125,-0.2485809326171875,-0.9784088134765625,2588.73065375,1.101447740498166,5.971327013002435,-1.547584747365984,0
1537844488.868301,260,0,2588.74902375,0.484527587890625,-0.4825286865234375,-1.199508666992188,2588.74065775,0.8556731256102412,5.397846164922517,-0.5293384203796376,0
1537844488.868672,261,0,2588.75881975,0.5364837646484375,-0.591339111328125,-1.288803100585938,2588.75066775,0.4540332794999031,4.750766196957168,0.1916618446986046,0
1537844488.869189,262,0,2588.76863875,0.6047821044921875,-0.5079498291015625,-1.296340942382812,2588.76067375,0.05978317278231676,4.046282324327379,0.4155940112740263,0
1537844488.869558,263,0,2588.77844375,0.6669464111328125,-0.3620758056640625,-1.280364990234375,2588.77067775,-0.2849007123589328,3.344740179437692,0.2511153181379696,0
1537844488.869929,264,0,2588.78824175,0.67816162109375,-0.2890777587890625,-1.289657592773438,2588.78066175,-0.538562012499018,2.754351986861296,-0.05816903084561973,0
1537844488.870333,265,0,2588.79805175,0.642303466796875,-0.2826995849609375,-1.272979736328125,2588.79069475,-0.616634177751345,2.375527708125775,-0.3086411955803351,0
1537844488.871018,266,0,2588.80782375,0.6271209716796875,-0.287445068359375,-1.219558715820312,2588.80069875,-0.427612590957445,2.17255648354204,-0.5736779220005849,0
1537844488.871723,267,0,2588.81763675,0.6590576171875,-0.27044677734375,-1.157501220703125,2588.81068375,-0.05817409085169088,2.189224942488737,-0.8267943393816399,0
1537844488.872534,268,0,2588.82743075,0.714019775390625,-0.2191162109375,-1.074050903320312,2588.82071675,0.20918704256798,2.211576320885554,-0.92224469601117,0
1537844488.873015,269,0,2588.83724475,0.74066162109375,-0.2841033935546875,-1.091537475585938,2588.83072075,0.2018766653757125,1.764481374973634,-0.602517293445053,0
1537844488.873439,270,0,2588.84704575,0.6974639892578125,-0.5570068359375,-1.242111206054688,2588.84070275,-0.1037844529448239,1.106966076592919,0.02365286522153875,0
1537844488.874427,271,0,2588.85683875,0.6737823486328125,-0.7142333984375,-1.28021240234375,2588.86074075,-0.3914985286793164,0.1285169636722808,0.7163453258088928,0
1537844488.874792,272,0,2588.86664675,0.7118072509765625,-0.67584228515625,-1.17626953125,,,,,0
1537844488.875579,273,0,2588.87646475,0.722808837890625,-0.51580810546875,-1.010986328125,2588.87071675,-0.06435475510954677,0.1853773171582356,0.6883733459314635,0
1537844488.87657,274,0,2588.88626175,0.6636810302734375,-0.440216064453125,-0.8954620361328125,2588.89076175,0.6099075654700229,0.6976430107377023,0.5859569588386132,0
1537844488.87697,275,0,2588.89606575,0.6505279541015625,-0.494049072265625,-0.8087005615234375,,,,,0
1537844488.877614,276,0,2588.90586675,0.6915740966796875,-0.56890869140625,-0.746826171875,2588.90076675,0.4783932139908578,0.335626740589999,0.433899515342795,0
1537844488.878464,277,0,2588.91564975,0.874420166015625,-0.6105194091796875,-1.014068603515625,2588.92078175,0.7778987017677852,1.398061834279594,0.4886578357803503,0
1537844488.883961,278,0,2588.92544675,0.782257080078125,-0.4409942626953125,-0.645843505859375,,,,,0
1537844488.884418,279,0,2588.93527275,0.764556884765625,-0.439422607421875,-0.6488494873046875,2588.93077875,0.9501157420832852,1.506664478268589,0.6643449749962236,0
1537844488.885884,280,0,2588.94506875,0.66705322265625,-0.5605316162109375,-0.72802734375,2588.95080275,0.8486519677123563,1.100827223964177,0.842155186233108,0
1537844488.886357,281,0,2588.95487675,0.5246734619140625,-0.465850830078125,-0.761932373046875,,,,,0
1537844488.886848,282,0,2588.96467675,0.4609527587890625,-0.33251953125,-0.77947998046875,2588.96079275,0.580370978452172,0.9391488447143389,0.7788217534016066,0
1537844488.933928,283,0,2588.97445675,0.3779144287109375,-0.247100830078125,-0.7504425048828125,2588.98082475,0.1033311829272925,0.6991056188083737,0.4763367209970987,0
1537844488.934509,284,0,2588.98428275,0.2862701416015625,-0.1461181640625,-0.7903900146484375,,,,,0
1537844488.934804,285,0,2588.99406075,0.2899017333984375,-0.1160430908203125,-0.82659912109375,,,,,0
1537844488.935302,286,0,2589.00385675,0.3302764892578125,-0.176910400390625,-0.7913970947265625,2589.01081975,0.4339961880903649,0.8305307543910212,0.2390085878224693,0
1537844488.935608,287,0,2589.01368275,0.3197479248046875,-0.120758056640625,-0.7655487060546875,,,,,0
1537844488.936017,288,0,2589.02349175,0.415679931640625,-0.147003173828125,-0.755340576171875,,,,,0
1537844488.936562,289,0,2589.03329175,0.587982177734375,-0.2329864501953125,-0.7380218505859375,2589.04086575,0.4366460333749937,0.7355853331041702,1.151791871428915,0
1537844488.936859,290,0,2589.04309675,0.641632080078125,-0.2925567626953125,-0.7127685546875,,,,,0
1537844488.944536,291,0,2589.05289775,0.6400604248046875,-0.3291778564453125,-0.6570281982421875,,,,,0
1537844488.94533,292,0,2589.06269575,0.614227294921875,-0.3061981201171875,-0.5867462158203125,2589.06088375,-0.08686272737846046,0.6619894090120485,1.558249642267315,0
1537844488.945772,293,0,2589.07250575,0.5364532470703125,-0.2417144775390625,-0.5057525634765625,2589.07088775,-0.2449421107311659,0.6391083278744146,1.6004852466271,0
1537844488.946143,294,0,2589.08230675,0.395172119140625,-0.1872406005859375,-0.522125244140625,,,,,0
1537844488.946501,295,0,2589.09210875,0.3455963134765625,-0.07373046875,-0.568206787109375,2589.08087975,-0.1904122895151394,0.3445762934332103,1.291073065911187,0
1537844488.946959,296,0,2589.10191075,0.3754730224609375,0.0535125732421875,-0.5668182373046875,2589.10089475,0.4894506588368668,-0.1912743547599981,-0.3632644937506234,0
1537844488.947584,297,0,2589.11171375,0.4318695068359375,0.157501220703125,-0.51812744140625,2589.11091575,0.3290580537613186,-0.5607480085921411,-1.612997043744401,0
1537844488.947968,298,0,2589.12151575,0.5057830810546875,0.26690673828125,-0.5127410888671875,,,,,0
1537844488.948444,299,0,2589.13131775,0.51678466796875,0.1860809326171875,-0.6380767822265625,2589.13092475,0.07970361773610946,-1.422229222223736,0.08181843395774138,0
1537844488.948768,300,0,2589.14111975,0.127105712890625,-0.416717529296875,-0.531158447265625,,,,,0
1537844488.949095,301,0,2589.15090475,0.4226837158203125,-0.302001953125,-0.370849609375,2589.14093675,-0.2474556021679827,-1.304888746698191,0.2523206648473394,0
1537844488.949501,302,0,2589.16072175,0.4664764404296875,-0.0518341064453125,-0.3712158203125,2589.15091975,-0.4693890663452999,-1.496336473245153,0.06396034095210604,0
1537844488.950041,303,0,2589.17049975,0.4434661865234375,0.026153564453125,-0.3870697021484375,2589.16092375,-0.692726016417089,-1.771678035187356,-0.2537718213253236,0
1537844488.95109,304,0,2589.18032575,0.3390655517578125,-0.0632171630859375,-0.43170166015625,2589.17095675,-0.9041410595530293,-1.958058032496006,-0.3472354597816544,0
1537844488.951591,305,0,2589.19012675,0.2501983642578125,-0.1036529541015625,-0.442108154296875,2589.19094875,-1.315373611909833,-1.836266349524502,-0.5228411062681714,0
1537844488.951942,306,0,2589.19992175,0.238006591796875,-0.07647705078125,-0.472198486328125,,,,,0
1537844488.952435,307,0,2589.20972875,0.276763916015625,-0.0571441650390625,-0.53143310546875,2589.20097875,-1.33162581877815,-1.816360818272814,-0.6744540681780553,0
1537844488.953479,308,0,2589.21953075,0.340911865234375,-0.0642547607421875,-0.607940673828125,2589.22099075,-0.8837939761926059,-1.631390432129142,-0.2408019605005287,0
1537844488.978107,309,0,2589.22930875,0.4557037353515625,-0.1741485595703125,-0.64764404296875,,,,,0
1537844489.013091,310,0,2589.23913575,0.596466064453125,-0.3934173583984375,-0.7412261962890625,2589.23099575,0.3703002990345037,-1.078924854527148,0.2889207540244074,0
1537844489.019941,311,0,2589.24893675,0.714263916015625,-0.6449737548828125,-0.522918701171875,2589.25101175,1.313450809602796,0.6667362273390057,0.6179071687524028,0
1537844489.028328,312,0,2589.25872475,0.832244873046875,-0.4896697998046875,-0.525970458984375,,,,,0
1537844489.029117,313,0,2589.26853975,0.806304931640625,-0.3078460693359375,-0.7396697998046875,2589.26101975,1.121032627154608,0.5305762576543065,0.4443508247247019,0
1537844489.02967,314,0,2589.27832075,0.633087158203125,-0.366546630859375,-0.978118896484375,2589.28103175,0.5677273548609119,-0.4421427978649173,0.3181268427509794,0
1537844489.030006,315,0,2589.28813875,0.517608642578125,-0.2980804443359375,-1.163238525390625,,,,,0
1537844489.030761,316,0,2589.29794475,0.4134521484375,-0.3763427734375,-1.318344116210938,2589.29104075,0.3385437009319628,-0.6996180110021051,0.4658113757368875,0
1537844489.031507,317,0,2589.30774775,0.6167755126953125,-0.3777923583984375,-1.379791259765625,2589.31105075,0.4951732593872291,-0.9848689290443833,1.103514353504067,0
1537844489.032019,318,0,2589.31754975,0.685089111328125,-0.4720611572265625,-1.452545166015625,2589.32103675,0.7138416880681092,-0.7453772438001736,1.204111801572394,0
1537844489.032357,319,0,2589.32735075,0.675018310546875,-0.462493896484375,-1.440475463867188,,,,,0
1537844489.032783,320,0,2589.33712875,0.55499267578125,-0.4869842529296875,-1.389602661132812,2589.34107475,0.6362467612831245,-0.2474590642773997,1.109012183258427,0
1537844489.033122,321,0,2589.34695375,0.54620361328125,-0.4976806640625,-1.31976318359375,,,,,0
1537844489.033467,322,0,2589.35675475,0.4885406494140625,-0.5518646240234375,-1.273101806640625,2589.35108175,0.4183570409049835,0.05328532603863242,1.025675214847122,0
1537844489.033971,323,0,2589.36654775,0.4637298583984375,-0.6575775146484375,-1.202484130859375,2589.37109475,-0.5101423552423465,0.3038847898734536,-0.4720570211253413,0
1537844489.034308,324,0,2589.37634375,0.4570159912109375,-0.8001251220703125,-1.18756103515625,,,,,0
1537844489.034789,325,0,2589.38615475,1.250869750976562,-2.88934326171875,-1.268692016601562,2589.38108075,-1.595680904020597,-1.034329423125444,1.494788910335708,0
1537844489.03525,326,0,2589.39594775,1.364486694335938,-2.3302001953125,-1.093231201171875,2589.40111575,-2.613970374216603,-2.057622973009708,2.71306420153347,0
1537844489.035577,327,0,2589.40576275,1.591567993164062,-2.256393432617188,-1.247116088867188,,,,,0
1537844489.035924,328,0,2589.41555075,1.426849365234375,-2.421737670898438,-1.289886474609375,2589.41110975,-1.514863552316616,-1.915120418872876,3.187806754302047,0
1537844489.036389,329,0,2589.42534375,1.259414672851562,-1.848907470703125,-1.189056396484375,2589.43113675,0.8654123057166609,-0.4485309223716903,3.855393595293224,0
1537844489.036657,330,0,2589.43514875,1.02288818359375,-1.584075927734375,-1.132369995117188,,,,,0
1537844489.037016,331,0,2589.44495175,0.758056640625,-1.169479370117188,-1.144485473632812,2589.44114475,2.177252968124395,0.1009505832288706,3.683585350205052,0
1537844489.093007,332,0,2589.45477375,0.526123046875,-0.6046600341796875,-1.245269775390625,2589.45115375,3.433271110922977,0.4312296963499906,3.072811458432426,0
1537844489.111563,333,0,2589.46455975,0.275787353515625,-0.0035247802734375,-1.312591552734375,2589.46115775,4.510898473367039,0.6382406699912668,2.186243001016175,0
1537844489.127765,334,0,2589.47436175,0.0160064697265625,0.49383544921875,-1.321990966796875,2589.47116475,5.438455110488481,0.6573235507822296,1.154643318008063,0
1537844489.163557,335,0,2589.48417875,-0.230865478515625,0.875640869140625,-1.313018798828125,2589.48117375,6.308753784173219,0.4247345127673963,-0.02481932977899346,0
1537844489.196578,336,0,2589.49396975,-0.480926513671875,1.145111083984375,-1.257659912109375,2589.49117775,6.950952710492671,0.03625414455146669,-1.331175211921709,0
1537844489.199479,337,0,2589.50375675,-0.6481170654296875,1.328369140625,-1.08636474609375,2589.50118675,7.16825227437325,-0.3826895907416613,-2.631003419916532,0
1537844489.200882,338,0,2589.51357375,-0.7409515380859375,1.428176879882812,-0.83203125,2589.51119475,6.933126575420117,-0.3394044345962764,-3.764203497459494,0
1537844489.201355,339,0,2589.52337375,-0.737884521484375,1.429290771484375,-0.480865478515625,2589.52119875,6.343083528520994,0.3836890750987681,-4.47463154564234,0
1537844489.201845,340,0,2589.53317475,-0.5794830322265625,1.295974731445312,0.0729827880859375,2589.53119675,5.658246860517156,1.445183007659129,-4.472575585280799,0
1537844489.202268,341,0,2589.54297975,-0.33160400390625,1.00213623046875,0.5176544189453125,2589.54121675,4.985347013151271,2.386673569919975,-4.7241441734363,0
1537844489.202687,342,0,2589.55278075,-0.11859130859375,0.7379913330078125,0.8085174560546875,2589.55122075,4.090320888745147,3.193005511065991,-5.158104142535839,0
1537844489.203071,343,0,2589.56258175,-0.2968597412109375,0.893768310546875,0.73223876953125,2589.56122875,3.316180439907682,3.170968651993912,-5.667711735031298,0
1537844489.203446,344,0,2589.57239675,0.0785369873046875,0.8395843505859375,0.696502685546875,,,,,0
1537844489.203912,345,0,2589.58220075,0.148956298828125,0.7163848876953125,0.685302734375,2589.58124275,2.453651272387141,2.723147462052728,-6.702436104946401,0
1537844489.214389,346,0,2589.59200275,0.26641845703125,0.840240478515625,0.52716064453125,,,,,0
1537844489.242677,347,0,2589.60177675,0.4041290283203125,0.9608612060546875,0.429840087890625,2589.59124875,2.102845845164235,2.343712786795361,-7.283864358351334,0
1537844489.249003,348,0,2589.61160575,0.60345458984375,1.003875732421875,0.3073577880859375,2589.61124175,1.778999065023983,1.643424458146884,-7.667625871431753,0
1537844489.249543,349,0,2589.62140775,0.85595703125,0.9686126708984375,0.210418701171875,,,,,0
1537844489.250266,350,0,2589.63120875,1.002548217773438,0.8309326171875,0.222930908203125,2589.62126875,1.832706502095393,1.974181342367564,-7.333935515270349,0
1537844489.250827,351,0,2589.64101075,1.051620483398438,0.6887664794921875,0.329681396484375,2589.64127075,2.632414895294273,3.368808764105391,-6.629803179904451,0
1537844489.251273,352,0,2589.65078675,0.98944091796875,0.5897369384765625,0.3710174560546875,,,,,0
1537844489.251622,353,0,2589.66061475,0.9148406982421875,0.562225341796875,0.320465087890625,2589.65129075,3.235279464945473,3.746279890691043,-6.620065065062468,0
1537844489.252453,354,0,2589.67041675,0.8247528076171875,0.678497314453125,0.2321624755859375,2589.67128175,4.308889182569041,3.574878310301325,-7.462279639787885,0
1537844489.252764,355,0,2589.68020675,0.695220947265625,0.73126220703125,0.1410064697265625,,,,,0
1537844489.253232,356,0,2589.69001875,0.620819091796875,0.791961669921875,0.05780029296875,2589.68131275,4.605749618751301,2.848757851711296,-8.088804265195567,0
1537844489.26161,357,0,2589.69982075,0.671783447265625,0.873687744140625,0.020263671875,2589.70129875,3.814489837794588,1.682085035059346,-8.569747722246284,0
1537844489.262162,358,0,2589.70962175,0.7767486572265625,0.8139801025390625,0.1070404052734375,,,,,0
1537844489.262553,359,0,2589.71942275,0.9866180419921875,0.734344482421875,0.2313690185546875,2589.71133275,2.923628897333348,1.260421945977138,-8.192143970238346,0
1537844489.263014,360,0,2589.72922175,1.467575073242188,0.67486572265625,0.1447906494140625,2589.73132475,1.620212878717971,0.03901850576296893,-6.108010560157444,0
1537844489.2633,361,0,2589.73900875,1.949432373046875,0.4354705810546875,-0.0462188720703125,,,,,0
1537844489.263617,362,0,2589.74882575,2.132919311523438,0.12310791015625,-0.13818359375,2589.74135275,1.231500016538877,-0.390542986480196,-5.264916609640084,0
1537844489.264079,363,0,2589.75862775,2.172958374023438,-0.000579833984375,-0.199676513671875,2589.75135975,0.9945633680444896,-0.7427305943088528,-4.906702800896795,0
1537844489.264831,364,0,2589.76842575,2.1866455078125,-0.08172607421875,-0.2131805419921875,2589.76136375,0.8152149149619754,-1.108470762608814,-4.638361624195976,0
1537844489.265295,365,0,2589.77822975,2.03375244140625,-0.1801300048828125,-0.1771392822265625,2589.77137375,0.5846197856552845,-1.530986595872065,-4.435112898226654,0
1537844489.266061,366,0,2589.78803675,1.81365966796875,-0.1703643798828125,-0.1058197021484375,2589.78137575,0.3121219471250687,-2.011605413585902,-4.448148272814264,0
1537844489.266494,367,0,2589.79783875,1.6754150390625,0.0169677734375,-0.017730712890625,2589.79137975,0.05671361330989143,-2.38706398933578,-4.56834498860892,0
1537844489.266886,368,0,2589.80763975,1.590682983398438,0.167694091796875,0.0922698974609375,2589.80136875,-0.01139406840779501,-2.502426002487506,-4.296482047682579,0
1537844489.267256,369,0,2589.81744275,1.905731201171875,0.0981597900390625,0.163604736328125,2589.81138175,0.3178770382407299,-2.232026734896273,-3.080500270815593,0
1537844489.267616,370,0,2589.82724075,2.304794311523438,-0.23199462890625,0.202911376953125,2589.82138575,0.9474413957166277,-1.939009772799214,-1.441814375196288,0
1537844489.267975,371,0,2589.83704675,2.264984130859375,-0.441986083984375,0.2005767822265625,2589.83139975,1.319064753180683,-1.882172588814743,-0.2557588058146317,0
1537844489.268335,372,0,2589.84684975,2.196456909179688,-0.4769134521484375,0.1555938720703125,2589.84141075,0.9126983287676719,-2.343193736698905,0.3860164115753883,0
1537844489.268691,373,0,2589.85665375,2.099472045898438,-0.4182281494140625,0.063568115234375,2589.85141475,-0.2046458202771769,-3.37386131332549,0.7541512943275486,0
1537844489.26905,374,0,2589.86645775,1.987457275390625,-0.365478515625,0.0009765625,2589.86142675,-1.586682082697219,-4.756137792875857,1.059350354198956,0
1537844489.269407,375,0,2589.87625775,1.84326171875,-0.347991943359375,-0.0421295166015625,2589.87144075,-2.869433569150236,-5.885740472418341,1.387110116928861,0
1537844489.269974,376,0,2589.88606475,1.696533203125,-0.3459320068359375,0.025421142578125,2589.88144475,-3.759073183935565,-6.564660129112241,1.710188042462407,0
1537844489.292912,377,0,2589.89586775,1.546630859375,-0.304901123046875,0.11163330078125,2589.89145575,-4.1392223853134,-6.603214179581101,1.886645101549422,0
1537844489.399598,378,0,2589.90567075,1.41754150390625,-0.197235107421875,0.1937713623046875,2589.90143775,-4.09110652126672,-5.775786007860021,1.987471847787604,0
1537844489.409779,379,0,2589.91547275,1.277923583984375,-0.0934295654296875,0.281219482421875,2589.91144175,-3.6601479347157,-4.400774099131172,2.122206227340784,0
1537844489.437115,380,0,2589.92527475,1.149734497070312,0.029876708984375,0.3258056640625,2589.92145475,-2.931898012518044,-2.942371159820889,2.227397894605606,0
1537844489.445728,381,0,2589.93506975,1.069000244140625,0.1841278076171875,0.2667388916015625,2589.93148575,-1.958369888659654,-1.598790943541591,2.323180613739178,0
1537844489.446389,382,0,2589.94487875,0.9542694091796875,0.3283843994140625,0.17303466796875,2589.94148975,-0.8416308098144714,-0.6692976556754439,2.276506052474449,0
1537844489.446852,383,0,2589.95468275,0.910064697265625,0.5057373046875,-0.0022125244140625,2589.95147775,0.1815365062341233,-0.1277414511628497,2.028280530435324,0
1537844489.447273,384,0,2589.96447075,0.9268798828125,0.6595611572265625,-0.1678009033203125,2589.96150575,0.968053729921623,0.1686366865459975,1.756029833254268,0
1537844489.44794,385,0,2589.97428975,0.923309326171875,0.7666473388671875,-0.235198974609375,2589.97150975,1.444741988182612,0.4086953587862851,1.574787340004489,0
1537844489.448713,386,0,2589.98409275,0.9241790771484375,0.796295166015625,-0.1780242919921875,2589.98151475,1.580741635569689,0.782835137164356,1.53608042408906,0
1537844489.449188,387,0,2589.99389075,1.018020629882812,0.8022308349609375,-0.039520263671875,2589.99152675,1.374165023502204,1.316316104619612,1.616259682395857,0
1537844489.449571,388,0,2590.00369675,1.119216918945312,0.8052978515625,0.092315673828125,2590.00153075,0.8277136625899353,1.670322385156684,1.655945576328,0
1537844489.449944,389,0,2590.01349975,1.14923095703125,0.8336181640625,0.12933349609375,2590.01153975,0.164014504158056,1.384415796854028,1.556461862227545,0
1537844489.450316,390,0,2590.02329875,1.1685791015625,0.924224853515625,0.0347137451171875,2590.02154975,-0.5802287656499618,0.6584740363731438,1.244231790762219,0
1537844489.450884,391,0,2590.03310575,1.25982666015625,1.04962158203125,-0.14794921875,2590.03155375,-1.248563422275233,-0.176854136405546,0.926143031214828,0
1537844489.451314,392,0,2590.04290775,1.349227905273438,1.179443359375,-0.315185546875,2590.04155975,-1.620219270304587,-0.7817198052998309,0.7734474943218267,0
1537844489.451598,393,0,2590.05270475,1.386367797851562,1.139190673828125,-0.36920166015625,,,,,0
1537844489.482585,394,0,2590.06250075,1.430084228515625,1.021484375,-0.3044891357421875,2590.06155775,-1.595336290975541,-0.5664969744372952,0.876502507444078,0
1537844489.483563,395,0,2590.07231875,1.46905517578125,0.9373931884765625,-0.1995391845703125,2590.07158075,-1.239550752514187,-0.09880087959695867,0.8734412037710318,0
1537844489.483947,396,0,2590.08210475,1.512283325195312,0.8567047119140625,-0.149078369140625,,,,,0
1537844489.484419,397,0,2590.09191875,1.569198608398438,0.8119049072265625,-0.1806793212890625,2590.09158875,-0.2674117334803824,0.3770359660635321,0.6294479773362612,0
1537844489.484752,398,0,2590.10170675,1.632522583007812,0.7652587890625,-0.23040771484375,,,,,0
1537844489.48508,399,0,2590.11150575,1.622360229492188,0.70953369140625,-0.262115478515625,2590.10160075,0.1016161071852814,0.4601116783718999,0.5686789023183971,0
1537844489.485458,400,0,2590.12130075,1.557830810546875,0.56622314453125,-0.225677490234375,2590.11158275,0.2824356904539554,0.5128113752868239,0.6617673013771359,0
1537844489.485827,401,0,2590.13110375,1.469314575195312,0.4087677001953125,-0.160491943359375,2590.12158675,0.2275729741016691,0.5549825311482286,0.8697205014120821,0
1537844489.496223,402,0,2590.14090975,1.362213134765625,0.291259765625,-0.101898193359375,2590.13159875,-0.07036657495429165,0.5584110847355966,1.363149922917527,0
1537844489.499187,403,0,2590.15072375,1.420364379882812,0.0832977294921875,-0.03167724609375,2590.14161275,-0.3089005874705089,0.5367345513590057,1.537735578706544,0
1537844489.581608,404,0,2590.16052175,1.079833984375,0.1942901611328125,-0.0030364990234375,2590.15161675,-0.5165930640347364,0.3979758690826071,1.308637678564695,0
1537844489.592962,405,0,2590.17032775,0.97894287109375,0.3231353759765625,-0.21624755859375,2590.16164275,-0.6172328563643948,-0.3472825977329488,1.136334351829877,0
1537844489.601346,406,0,2590.18013575,1.015869140625,0.1866302490234375,-0.275634765625,2590.17162975,-0.6508035998014976,-1.048813557346058,0.8727597008480806,0
1537844489.60244,407,0,2590.18994075,0.8964385986328125,0.159271240234375,-0.2529754638671875,2590.18163375,-0.8162626025348126,-1.619625385381499,0.7453625964141781,0
1537844489.602944,408,0,2590.19973175,0.81219482421875,0.2668914794921875,-0.2795562744140625,2590.19166275,-1.067102549816068,-1.877696880286756,0.5806466156249952,0
1537844489.603475,409,0,2590.20954775,0.7460784912109375,0.2477569580078125,-0.2003021240234375,2590.20167075,-1.267056412884743,-1.879552038302105,0.4763255357205203,0
1537844489.610859,410,0,2590.21934775,0.6816253662109375,0.125152587890625,-0.1177825927734375,2590.21167475,-1.369151889066239,-1.825118889833649,0.6272324936254243,0
1537844489.611599,411,0,2590.22912675,0.631591796875,0.0032196044921875,-0.109130859375,2590.22168375,-1.45879548925496,-1.747470167194644,0.8857053269069558,0
1537844489.651396,412,0,2590.23895475,0.5853424072265625,-0.011322021484375,-0.1203765869140625,2590.23169275,-1.590548459967796,-1.690266798560287,1.108739475562803,0
1537844489.65241,413,0,2590.24875075,0.5721588134765625,-0.001922607421875,-0.1656494140625,2590.24169675,-1.797061156169119,-1.718371936492221,1.278374314885362,0
1537844489.652882,414,0,2590.25855675,0.55987548828125,0.0109710693359375,-0.2478485107421875,2590.25170375,-1.957932597608663,-1.88806030535269,1.398397658893053,0
1537844489.653284,415,0,2590.26835975,0.5387725830078125,0.040374755859375,-0.2938385009765625,2590.26171375,-1.975490818675556,-2.058267457993507,1.468751450674112,0
1537844489.653661,416,0,2590.27815875,0.5188751220703125,0.0921630859375,-0.3502349853515625,2590.27171775,-1.459668473460288,-2.962549398768202,0.9896479716205304,0
1537844489.661266,417,0,2590.28796675,0.357452392578125,0.352447509765625,-0.813873291015625,2590.28170775,-1.126104883766774,-2.991880656066008,0.2059046965244574,0
1537844489.662197,418,0,2590.29776675,0.571502685546875,0.3870086669921875,-0.2549285888671875,2590.29173375,-1.086674653299278,-2.189244916196913,-0.1023122574942281,0
1537844489.662656,419,0,2590.30756875,0.53643798828125,0.2135772705078125,-0.0754241943359375,2590.30173775,-0.7969003561455005,-1.409905444279395,0.09724532720424338,0
1537844489.693811,420,0,2590.31737075,0.65521240234375,0.140899658203125,0.0511016845703125,2590.31174375,-0.3264066105800357,-0.7999789703656321,0.3500048809992278,0
1537844489.730236,421,0,2590.32714775,0.811737060546875,0.1223602294921875,0.0310821533203125,2590.33175775,0.2088062105320987,-0.2280667241677698,0.6282191948092987,0
1537844489.730889,422,0,2590.33697575,0.9038238525390625,0.1230316162109375,-0.0167236328125,,,,,0
1537844489.731275,423,0,2590.34677775,0.9281158447265625,0.1613006591796875,-0.0654754638671875,2590.34174275,0.3164032448934801,-0.1776200615350528,0.7013954047136239,0
1537844489.731752,424,0,2590.35656775,0.9729156494140625,0.2167510986328125,-0.1185455322265625,2590.36177975,0.3600359435611203,0.1721272917867644,0.9005902668716267,0
1537844489.732051,425,0,2590.36638275,0.9566192626953125,0.254364013671875,-0.208831787109375,,,,,0
1537844489.732375,426,0,2590.37618575,0.892120361328125,0.20361328125,-0.3013763427734375,2590.37177275,0.258692544071463,0.3675785484004427,0.7968638708385665,0
1537844489.735632,427,0,2590.38598575,0.8759765625,0.191070556640625,-0.423614501953125,2590.39179975,0.09422317199922146,0.3960725078515275,0.4039360236022045,0
1537844489.744843,428,0,2590.39579375,0.8596649169921875,0.181915283203125,-0.551605224609375,,,,,0
1537844489.776439,429,0,2590.40559875,0.8258209228515625,0.1699066162109375,-0.628875732421875,,,,,0
1537844489.814782,430,0,2590.41539475,0.8735809326171875,0.1783294677734375,-0.6893768310546875,2590.41181575,0.2783024644421525,0.3087538472944455,0.2594438218149743,0
1537844489.815618,431,0,2590.42520375,0.913299560546875,0.1539154052734375,-0.688934326171875,2590.42181975,0.2889034434773219,0.4179106951062863,0.2448816569744211,0
1537844489.816175,432,0,2590.43500675,0.913330078125,0.138763427734375,-0.6221160888671875,2590.43183075,0.1474512400744172,0.4655495870017327,0.2228298842002379,0
1537844489.816934,433,0,2590.44479275,0.911834716796875,0.16619873046875,-0.5182037353515625,2590.45184075,-0.5184396999345974,0.723447976436134,0.5486247666778825,0
1537844489.817313,434,0,2590.45460775,0.9482574462890625,0.165771484375,-0.3932647705078125,,,,,0
1537844489.817674,435,0,2590.46441375,0.9550628662109375,0.08319091796875,-0.2803955078125,2590.46183075,-0.7699662101448751,0.9350214776569341,0.7010816843372126,0
1537844489.828615,436,0,2590.47421375,1.001449584960938,0.082550048828125,-0.2344818115234375,2590.47185775,-0.8922622958268399,0.9611521479566826,0.768887363587284,0
1537844489.832993,437,0,2590.48401975,0.9720001220703125,0.0235137939453125,-0.203460693359375,2590.48186175,-0.9202851420810897,0.5008308788069934,0.7880389539343708,0
1537844489.862794,438,0,2590.49382375,0.7880096435546875,-0.0723876953125,-0.194427490234375,,,,,0
1537844489.911157,439,0,2590.50362075,0.7089691162109375,-0.0151519775390625,-0.1850128173828125,2590.50187975,-1.043386035044476,-1.319005098372265,0.8899426825173808,0
1537844489.962368,440,0,2590.51343075,0.737518310546875,0.0055999755859375,-0.1445465087890625,2590.51188375,-1.067994176149027,-2.008336915980048,0.9300275179808175,0
1537844489.985043,441,0,2590.52323475,0.769927978515625,-0.103240966796875,-0.1921844482421875,,,,,0
1537844490.010078,442,0,2590.53303975,0.76873779296875,-0.1594390869140625,-0.20648193359375,2590.52187375,-1.07898877039331,-2.266294693906758,0.9158698873098473,0
1537844490.061948,443,0,2590.54284475,0.7623291015625,-0.1424560546875,-0.2535858154296875,2590.54187875,-0.8632652652458391,-1.780109603198546,0.9549182204770251,0
1537844490.076587,444,0,2590.55264875,0.816162109375,-0.02740478515625,-0.2825164794921875,,,,,0
1537844490.128024,445,0,2590.56245075,0.85260009765625,0.066192626953125,-0.3492889404296875,2590.55189475,-0.3882777016569746,-1.176507337925395,0.848707627779139,0
1537844490.160688,446,0,2590.57225575,0.907012939453125,0.18096923828125,-0.44512939453125,2590.57190375,0.7253502724027777,-0.05902284029109913,0.3371095886849552,0
1537844490.19689,447,0,2590.58203175,0.9252166748046875,0.2767333984375,-0.503509521484375,,,,,0
1537844490.226999,448,0,2590.59186075,0.898193359375,0.2992095947265625,-0.5172119140625,2590.58190875,1.009157490818124,0.2228831474220395,0.0747306970326045,0
1537844490.227807,449,0,2590.60166475,0.9646453857421875,0.4279327392578125,-0.5648345947265625,2590.60193375,1.127974955484227,0.01440237517514852,0.1457044727154342,0
1537844490.228136,450,0,2590.61145075,1.056442260742188,0.5958251953125,-0.681976318359375,,,,,0
1537844490.228474,451,0,2590.62127075,0.9569854736328125,0.323211669921875,-0.7618408203125,2590.61194675,1.199672045719122,0.1580929654742648,-0.1625606845189817,0
1537844490.229082,452,0,2590.63107375,0.832763671875,0.1131744384765625,-0.6511688232421875,2590.63196175,1.364555273024762,1.31919418280966,-1.453482216564143,0
1537844490.229604,453,0,2590.64087775,0.887451171875,0.03076171875,-0.6253662109375,,,,,0
1537844490.229968,454,0,2590.65068175,0.995452880859375,0.002716064453125,-0.7480010986328125,2590.64194475,1.350762229107024,1.401494382608597,-1.386051510395555,0
1537844490.230728,455,0,2590.66048575,1.059326171875,0.1025848388671875,-0.8554840087890625,2590.66198375,0.9633628379775574,0.9842417546076696,-1.076837468864744,0
1537844490.231099,456,0,2590.67028775,1.136932373046875,0.1882476806640625,-0.851806640625,,,,,0
1537844490.231445,457,0,2590.68008775,1.077590942382812,0.217681884765625,-0.8286285400390625,2590.67197475,0.6436993512776022,0.7941748770859134,-1.113847684849684,0
1537844490.2319,458,0,2590.68989675,0.9658966064453125,0.3254241943359375,-0.8200225830078125,2590.69197875,0.07657653398413841,0.6935084531453543,-1.986198856786546,0
1537844490.232271,459,0,2590.69968875,0.813751220703125,0.35028076171875,-0.8798065185546875,,,,,0
1537844490.232607,460,0,2590.70950475,1.0068359375,0.2404022216796875,-0.975250244140625,2590.70200375,0.0203875634089926,0.3266609424641383,-2.200310616842301,0
1537844490.233056,461,0,2590.71931075,1.00177001953125,0.1668243408203125,-0.885833740234375,2590.72202475,-0.1481772177875728,0.4951287845970248,-2.118066077110147,0
1537844490.233364,462,0,2590.72911075,0.9476776123046875,0.09588623046875,-0.652313232421875,,,,,0
1537844490.2337,463,0,2590.73891775,0.916473388671875,0.059051513671875,-0.4465484619140625,2590.73203475,-0.1454346944970092,0.7342636062551638,-1.951489345667325,0
1537844490.234078,464,0,2590.74871975,0.926361083984375,0.0968017578125,-0.3524932861328125,2590.74204175,0.06306898093525652,0.7537891044192978,-1.767302994148573,0
1537844490.234448,465,0,2590.75851475,0.9179840087890625,0.186309814453125,-0.3873748779296875,2590.75204575,0.4023951185954847,0.8223990583185732,-1.664185396740705,0
1537844490.235034,466,0,2590.76833375,0.870697021484375,0.2245330810546875,-0.4049224853515625,2590.77206275,0.6820888183910945,1.803399213247398,-1.458787233455581,0
1537844490.235451,467,0,2590.77812375,0.8109283447265625,0.25555419921875,-0.3497467041015625,2590.78206675,0.5064267128894679,2.485285631395647,-1.150329263358243,0
1537844490.235738,468,0,2590.78793475,0.72625732421875,0.2430572509765625,-0.2010040283203125,,,,,0
1537844490.236318,469,0,2590.79771775,0.7180023193359375,0.231689453125,-0.1750640869140625,2590.79206075,0.332635744369731,3.156756692836705,-0.8193990073505989,0
1537844490.236782,470,0,2590.80752675,0.817291259765625,0.2760009765625,-0.206146240234375,2590.81208575,0.5274992413308289,3.149345648155232,-0.5616327107062655,0
1537844490.237107,471,0,2590.81733275,0.7481689453125,0.210784912109375,-0.1886444091796875,,,,,0
1537844490.237311,472,0,2590.82714875,0.7383270263671875,0.1920623779296875,-0.1565704345703125,,,,,0
1537844490.243582,473,0,2590.83694475,0.7617340087890625,0.2060546875,-0.1009063720703125,2590.83210275,0.9812576826062358,1.60697084282977,-0.4825357610664761,0
1537844490.244285,474,0,2590.84675575,0.782470703125,0.1515045166015625,-0.1137237548828125,2590.84210675,1.002891072773167,0.7495778477875555,-0.365066388544171,0
1537844490.244775,475,0,2590.85656675,0.8415374755859375,0.0483551025390625,-0.16571044921875,2590.85209975,0.8331710122957257,0.1287731597691464,-0.1426572837961655,0
1537844490.245279,476,0,2590.86636375,0.8100433349609375,-0.024169921875,-0.2144317626953125,2590.87212675,0.3415850308968333,-0.4333756715563764,0.09199383985071613,0
1537844490.245535,477,0,2590.87616775,0.8915863037109375,-0.001678466796875,-0.2424468994140625,,,,,0
1537844490.245876,478,0,2590.88597275,0.9275970458984375,0.0490264892578125,-0.2658233642578125,2590.88211875,0.09024653985951514,-0.68674482292488,0.2223728857571804,0
1537844490.247096,479,0,2590.89578175,0.9181060791015625,0.0840301513671875,-0.2603302001953125,2590.90214775,-0.1307947653526256,-0.645609104095298,0.1793101035628171,0
1537844490.254888,480,0,2590.90559375,0.9085235595703125,0.1375732421875,-0.2158203125,,,,,0
1537844490.282499,481,0,2590.91540075,0.9219512939453125,0.2008056640625,-0.1364288330078125,,,,,0
1537844490.283479,482,0,2590.92518975,0.9663543701171875,0.393035888671875,0.0067138671875,2590.92216375,0.2737085115617658,0.189895103631446,0.1356292016794464,0
1537844490.285638,483,0,2590.93501075,0.91607666015625,0.29931640625,-0.1259765625,2590.93216775,0.5948804127031417,0.7237928557972994,0.4204585413211651,0
1537844490.303547,484,0,2590.94481675,0.8781585693359375,0.1334381103515625,-0.1868438720703125,2590.94217675,0.9927950290806771,1.40836027821493,0.588806807521107,0
1537844490.363902,485,0,2590.95461975,0.821258544921875,0.200958251953125,-0.1422576904296875,2590.96218775,1.63470367084131,2.28700716296874,0.8839244710860198,0
1537844490.36456,486,0,2590.96442875,0.8093719482421875,0.274017333984375,-0.13720703125,,,,,0
1537844490.365265,487,0,2590.97423375,0.763671875,0.3228302001953125,-0.1314849853515625,,,,,0
1537844490.365769,488,0,2590.98402875,0.6976470947265625,0.3306884765625,-0.14404296875,2590.98220475,1.958523286738443,1.772883115580616,0.9624914516688834,0
1537844490.366562,489,0,2590.99384575,0.694854736328125,0.29754638671875,-0.11639404296875,2590.99220875,2.01575355329981,1.294770066136435,0.89421652343474,0
1537844490.367024,490,0,2591.00365175,0.709808349609375,0.2762603759765625,-0.0741729736328125,2591.00221675,2.058479179300169,0.7623482378467035,0.8027603758081109,0
1537844490.367288,491,0,2591.01345675,0.69305419921875,0.2327423095703125,-0.04254150390625,,,,,0
1537844490.377841,492,0,2591.02326275,0.6615753173828125,0.1707916259765625,-0.0349578857421875,2591.02223275,2.201213428451838,0.03603896113538829,0.7510769411651611,0
1537844490.382829,493,0,2591.03305075,0.6212158203125,0.1267547607421875,-0.041534423828125,2591.03223675,2.295113825326942,-0.2117617867098686,0.6921031030381194,0
1537844490.410326,494,0,2591.04287075,0.6536712646484375,0.1330108642578125,-0.0814971923828125,,,,,0
1537844490.453167,495,0,2591.05267675,0.7336883544921875,0.1451263427734375,-0.1845550537109375,2591.05224975,2.200505560234095,-0.6814158375836314,0.2460968573798242,0
1537844490.464543,496,0,2591.06248175,0.7992706298828125,0.1671142578125,-0.2804107666015625,2591.06225675,1.816888390484759,-0.7331512038678377,-0.2358436871830192,0
1537844490.465196,497,0,2591.07228475,0.8933868408203125,0.2231903076171875,-0.3408203125,,,,,0
1537844490.46574,498,0,2591.08209275,0.9554290771484375,0.3352813720703125,-0.36663818359375,2591.08224975,0.2692834030944901,-0.2595966872615449,-1.396384309108953,0
1537844490.466058,499,0,2591.09188875,0.9394989013671875,0.4016571044921875,-0.3758087158203125,,,,,0
1537844490.466388,500,0,2591.10170375,0.8391265869140625,0.179595947265625,-0.2262725830078125,2591.09227875,-0.7824159556087775,0.6518156010157278,-1.837001914617582,0
1537844490.466759,501,0,2591.11150875,0.8738555908203125,0.108642578125,0.024139404296875,2591.10227475,-1.737285972870072,1.224293768945232,-1.958702251163696,0
1537844490.469814,502,0,2591.12130775,0.96209716796875,0.28082275390625,0.201171875,2591.11227875,-2.299917635301227,1.026018762627743,-1.980028578856942,0
1537844490.525297,503,0,2591.13111575,1.061767578125,0.5765838623046875,0.417694091796875,2591.12229775,-2.169336988100243,0.3081857950339316,-1.912567512651926,0
1537844490.531482,504,0,2591.14092275,1.018890380859375,0.8434600830078125,0.5798492431640625,2591.14230875,-0.6385919409390483,-0.2860994011655774,-1.940358663891339,0
1537844490.532247,505,0,2591.15072675,1.102325439453125,1.0308837890625,0.5252532958984375,,,,,0
1537844490.532721,506,0,2591.16053175,1.288909912109375,0.9618988037109375,0.30322265625,2591.15231875,-0.004273840917359162,-0.02347443342850344,-1.957137644023275,0
1537844490.533106,507,0,2591.17033575,1.468963623046875,0.9163665771484375,0.0777740478515625,2591.16232575,0.1731384940526675,0.1495309025696601,-1.696643205158264,0
1537844490.533674,508,0,2591.18011575,1.518051147460938,0.876068115234375,-0.04815673828125,2591.17232975,0.09794254277762612,0.3429799946758169,-1.420778864694079,0
1537844490.537587,509,0,2591.18992275,1.621002197265625,0.9009246826171875,-0.1201019287109375,2591.18233875,0.05706302004490982,0.6721728043882934,-1.272373147684978,0
1537844490.548696,510,0,2591.19974775,1.6959228515625,0.91668701171875,-0.1831207275390625,2591.19234675,-0.05991420030794865,0.9660459727758122,-1.163904727014922,0
1537844490.592201,511,0,2591.20954175,1.722030639648438,0.8905792236328125,-0.221893310546875,2591.20235075,-0.3350943746880922,1.045982350791195,-1.141754683596515,0
1537844490.630299,512,0,2591.21935575,1.697906494140625,0.891021728515625,-0.2364501953125,2591.21235975,-0.6284378403347942,0.9514670300203915,-1.17068886357579,0
1537844490.660896,513,0,2591.22915975,1.624862670898438,0.839080810546875,-0.1949615478515625,2591.22236575,-0.7531078678124555,0.833990999595361,-1.144447938406912,0
1537844490.695402,514,0,2591.23896375,1.4622802734375,0.74810791015625,-0.088165283203125,2591.23236975,-0.5956106514740415,0.7234663522476557,-1.032259880642343,0
1537844490.727614,515,0,2591.24876775,1.317062377929688,0.6400604248046875,0.0134735107421875,2591.24236675,-0.284605101477934,0.6862705139347369,-0.7752102406473502,0
1537844490.786359,516,0,2591.25854575,1.21978759765625,0.5140533447265625,0.16021728515625,2591.25238675,-0.01557523131921942,0.5890190614599864,-0.4723246688148943,0
1537844490.810654,517,0,2591.26837675,1.23193359375,0.4067230224609375,0.263458251953125,2591.26239075,0.1901086891508704,0.5356077679017932,-0.1352571580751624,0
1537844490.860509,518,0,2591.27817975,1.169662475585938,0.3585357666015625,0.349609375,2591.28240675,0.3598521854459049,0.4579782200226374,0.09933857182104566,0
1537844490.896293,519,0,2591.28796475,1.120986938476562,0.343841552734375,0.313262939453125,2591.29241075,0.4682082207179588,0.4407142782561987,-0.04752144649137393,0
1537844490.928331,520,0,2591.29778775,1.105728149414062,0.45574951171875,0.107879638671875,,,,,0
1537844490.943754,521,0,2591.30759075,0.8937225341796875,0.547149658203125,0.11102294921875,2591.30240675,0.6028959949520623,0.346177918512784,-0.4140837326198424,0
1537844491.018527,522,0,2591.31737975,0.7545166015625,0.6395111083984375,0.0251312255859375,2591.32243175,0.691787518448945,0.1799101137564119,-1.706471068528983,0
1537844491.02592,523,0,2591.32719775,0.5455474853515625,0.801422119140625,-0.057098388671875,,,,,0
1537844491.043615,524,0,2591.33700275,0.3410797119140625,0.784576416015625,-0.14459228515625,2591.33243575,0.8302351435100224,0.327289714797506,-2.073746016565157,0
1537844491.093669,525,0,2591.34680275,0.2131805419921875,0.524505615234375,-0.1162872314453125,2591.35245375,1.18703694424335,0.8948439641875627,-1.577840920510374,0
1537844491.126776,526,0,2591.35660575,0.1438446044921875,0.3364105224609375,-0.0531768798828125,,,,,0
1537844491.127481,527,0,2591.36639075,0.1739959716796875,0.28717041015625,0.0031585693359375,,,,,0
1537844491.210673,528,0,2591.37622175,0.29254150390625,0.3130950927734375,0.0405120849609375,2591.38247175,1.828548242369344,1.589791056953778,0.4010307811690371,0
1537844491.227021,529,0,2591.38601375,0.4925384521484375,0.1753997802734375,-0.0237274169921875,,,,,0
1537844491.251163,530,0,2591.39581775,0.5537109375,0.0842437744140625,-0.0786590576171875,,,,,0
1537844491.27749,531,0,2591.40562675,0.639678955078125,0.1898345947265625,-0.0696868896484375,2591.40248875,1.56968419072368,0.5972516913377482,0.576305929364275,0
1537844491.350422,532,0,2591.41542875,0.7597808837890625,0.2784881591796875,-0.1390228271484375,2591.41249275,1.234260116692635,-0.2093910407074801,0.2848549059881834,0
1537844491.358861,533,0,2591.42523275,0.874298095703125,0.2840728759765625,-0.1758880615234375,,,,,0
1537844491.395889,534,0,2591.43504275,0.964141845703125,0.3120269775390625,-0.221160888671875,2591.43250875,0.4523261932411622,-0.857042789358869,-0.1775153993042127,0
1537844491.42789,535,0,2591.44485575,0.974365234375,0.34149169921875,-0.3022003173828125,2591.44251275,0.0402574083020738,-0.7151644801815517,-0.118876853158412,0
1537844491.460192,536,0,2591.45466075,0.91876220703125,0.306121826171875,-0.3367156982421875,2591.45252075,-0.1331074544432504,-0.5950532518578879,0.01482421989181707,0
1537844491.528036,537,0,2591.46445275,0.864227294921875,0.2516632080078125,-0.3008880615234375,2591.47253275,-0.1679037846140077,-0.9648438218597504,-0.2917421068832373,0
1537844491.528824,538,0,2591.47426875,0.8492584228515625,0.2435150146484375,-0.2832794189453125,,,,,0
1537844491.58796,539,0,2591.48407075,0.85357666015625,0.434051513671875,-0.2847137451171875,2591.48253975,-0.407011974661246,-1.014211105302658,-0.4930656337005404,0
1537844491.59613,540,0,2591.49387875,1.012359619140625,0.5733642578125,-0.2889556884765625,2591.49253175,-0.5399228878160486,-0.9323737629011773,-0.6079826326341136,0
1537844491.596769,541,0,2591.50367375,1.07745361328125,0.5492095947265625,-0.3543853759765625,2591.50253575,-0.6142644970133925,-0.7353999770923006,-0.6571046389406251,0
1537844491.597211,542,0,2591.51346975,0.93988037109375,0.5500030517578125,-0.338348388671875,2591.51253075,-0.8032104500323343,-0.3662536257581283,-0.6820576594063406,0
1537844491.597448,543,0,2591.52326375,0.8668212890625,0.6248931884765625,-0.242523193359375,,,,,0
1537844491.597643,544,0,2591.53309075,0.84368896484375,0.6821136474609375,-0.13482666015625,,,,,0
1537844491.598133,545,0,2591.54290175,0.78631591796875,0.5913238525390625,-0.1128692626953125,2591.53254575,-0.8602947753659648,0.06662829573214742,-0.4472281039664236,0
1537844491.598572,546,0,2591.55270675,0.70166015625,0.5606536865234375,-0.03936767578125,2591.54258075,-0.913338020061509,-0.01494752425028774,-0.1935771901545896,0
1537844491.599064,547,0,2591.56251175,0.6633758544921875,0.6030426025390625,0.0654449462890625,2591.56259675,-0.8622964072412683,-0.1592202815636954,0.1777478932673766,0
1537844491.59934,548,0,2591.57229575,0.6618804931640625,0.5969085693359375,0.1355743408203125,,,,,0
1537844491.599656,549,0,2591.58212375,0.6905517578125,0.617645263671875,0.1261138916015625,2591.57260075,-0.8091519624243011,-0.1994438677199251,0.1924458793235239,0
1537844491.60022,550,0,2591.59192475,0.6833648681640625,0.636077880859375,0.049591064453125,2591.59259575,-0.7685030694419857,-0.7169530591696488,0.350176654889538,0
1537844491.600598,551,0,2591.60171575,0.685394287109375,0.5610504150390625,-0.103912353515625,,,,,0
1537844491.601018,552,0,2591.61153375,0.714111328125,0.4449462890625,-0.1282501220703125,2591.60262175,-0.8234440827303203,-0.7493229832712349,0.4063264769966596,0
1537844491.601443,553,0,2591.62133775,0.7247314453125,0.3719635009765625,-0.1404876708984375,2591.61262875,-0.9234622932615542,-0.6892420690790473,0.475171055387971,0
1537844491.601909,554,0,2591.63113475,0.742462158203125,0.3480072021484375,-0.1397247314453125,2591.63264175,-0.9346214708612042,-0.5133141801006309,0.5717588481190737,0
1537844491.602138,555,0,2591.64113475,0.7657928466796875,0.344482421875,-0.12127685546875,,,,,0
1537844491.602367,556,0,2591.65090875,0.77191162109375,0.3406982421875,-0.1251068115234375,,,,,0
1537844491.602767,557,0,2591.66071375,0.79638671875,0.3891448974609375,-0.13958740234375,2591.65263175,-0.666613721928862,-0.2609559646819213,0.812342163094107,0
1537844491.603036,558,0,2591.67050675,0.823211669921875,0.4976959228515625,-0.1198577880859375,,,,,0
1537844491.603351,559,0,2591.68032475,0.88409423828125,0.5587921142578125,-0.13720703125,2591.66266175,-0.563394924399571,0.06081141927919635,0.8493409274863598,0
1537844491.603788,560,0,2591.69012875,0.8640899658203125,0.550811767578125,-0.180450439453125,2591.68266775,-0.4827080675890043,0.434941610277343,0.8058051678823984,0
1537844491.60406,561,0,2591.69992475,0.845672607421875,0.507080078125,-0.2777099609375,,,,,0
1537844491.604374,562,0,2591.70973675,0.8867645263671875,0.411895751953125,-0.3167572021484375,2591.69268175,-0.4580125748006995,0.09362183022508157,0.8469784372833505,0
1537844491.604728,563,0,2591.71954075,0.879180908203125,0.59808349609375,-0.1606597900390625,2591.70267775,-0.3771408946104812,0.1164941229311181,0.6771603724777938,0
1537844491.610765,564,0,2591.72934475,0.9299163818359375,1.278335571289062,-0.0347747802734375,2591.71268175,-0.2971006533125858,0.5500636726148523,-0.09241408667073063,0
1537844491.6435,565,0,2591.73914775,1.150604248046875,1.03900146484375,-0.556427001953125,2591.72270175,-0.3118582941771508,-0.21597597281881,-0.5726675186830088,0
1537844491.713491,566,0,2591.74895275,1.21514892578125,0.631561279296875,-0.3328094482421875,2591.74268475,0.1727731083511086,0.5217065996437976,-0.8768982531820637,0
1537844491.736084,567,0,2591.75874275,1.007614135742188,0.5588836669921875,-0.15106201171875,,,,,0
1537844491.743003,568,0,2591.76856175,0.976776123046875,0.532867431640625,-0.379180908203125,2591.75272175,0.132623291757074,0.5853952981647155,-0.9981863323914335,0
1537844491.802096,569,0,2591.77836475,0.9829559326171875,0.6162261962890625,-0.4766387939453125,2591.76271175,-0.1247126380551026,0.4878186737208663,-1.010746332724465,0
1537844491.830011,570,0,2591.78816875,1.04583740234375,0.74853515625,-0.4174041748046875,2591.77271575,-0.3862787329427611,0.7212218400809368,-0.9107643411840564,0
1537844491.887329,571,0,2591.79797475,1.163223266601562,0.70037841796875,-0.3120269775390625,2591.78274275,-0.4636669984271557,1.098756349900532,-0.5755730274322852,0
1537844491.914871,572,0,2591.80778075,1.250381469726562,0.612518310546875,-0.2487030029296875,2591.79273375,-0.3132559211172244,1.204234306982537,-0.2732949226444765,0
1537844491.916371,573,0,2591.81757375,1.2685546875,0.5576019287109375,-0.2001953125,2591.80273775,-0.1594285407609395,0.9990028575816517,-0.1923974097916845,0
1537844491.916873,574,0,2591.82739075,1.264419555664062,0.5667266845703125,-0.1702117919921875,2591.81276375,-0.1158650842816414,0.5398456561444362,-0.2780023261873005,0
1537844491.917257,575,0,2591.83719575,1.297927856445312,0.62274169921875,-0.138031005859375,2591.82275475,-0.1545996970724079,0.07141346357880179,-0.3377444862888301,0
1537844491.917579,576,0,2591.84699975,1.327835083007812,0.544769287109375,-0.09130859375,2591.83275875,-0.1268895059301334,-0.4591201834980634,-0.3356072995140414,0
1537844491.918615,577,0,2591.85680575,1.331390380859375,0.4952850341796875,-0.0814208984375,2591.84278175,0.03945952523948606,-0.8821241741891263,-0.2827792382345757,0
1537844491.919093,578,0,2591.86660875,1.277435302734375,0.525726318359375,-0.1143646240234375,2591.85277475,0.1655085375295904,-1.232858228694818,-0.3406505276703245,0
1537844491.919505,579,0,2591.87641275,1.179702758789062,0.48187255859375,-0.1336669921875,2591.86277875,0.2285897690058613,-1.736141878865774,-0.617508759853327,0
1537844491.919926,580,0,2591.88621975,1.069137573242188,0.382720947265625,-0.0971832275390625,2591.87277975,0.4059009038544649,-2.331557853264131,-0.9873310214721615,0
1537844491.920418,581,0,2591.89600075,0.915618896484375,0.3155059814453125,-0.0424957275390625,2591.89281575,0.399384148667041,-3.159289625349479,-1.605547915859341,0
1537844491.920797,582,0,2591.90582475,0.76593017578125,0.2078094482421875,0.066680908203125,,,,,0
1537844491.921228,583,0,2591.91562775,0.5396575927734375,0.0728759765625,0.0313262939453125,2591.90280975,-0.02466566538409589,-2.835180523841854,-1.214908256631575,0
1537844491.92209,584,0,2591.92540575,0.378265380859375,-0.0943756103515625,-0.0494232177734375,2591.92281075,-1.02409995506234,-2.362634546340375,0.4590035370423179,0
1537844491.928659,585,0,2591.93523475,0.3628692626953125,-0.1302337646484375,0.132110595703125,,,,,0
1537844491.929326,586,0,2591.94503975,0.3846588134765625,-0.146820068359375,0.3341217041015625,2591.93283675,-0.9799362220733385,-1.950947126069385,0.9464813261436541,0
1537844491.929739,587,0,2591.95484475,0.4185028076171875,-0.06744384765625,0.35516357421875,2591.94284975,-0.9478200972236369,-1.466772721984184,1.107257160100065,0
1537844491.93011,588,0,2591.96463475,0.4747314453125,0.0620269775390625,0.2452850341796875,2591.95285375,-0.9283262906764749,-1.358942128395202,1.062962932217649,0
1537844491.930491,589,0,2591.97445275,0.5473175048828125,0.2452239990234375,0.1325531005859375,2591.96286275,-0.8267586530230329,-1.362893993136771,0.8605288672257827,0
1537844491.930954,590,0,2591.98425775,0.667816162109375,0.47833251953125,0.108795166015625,2591.98285275,-0.1114106810423749,-0.5351526336714987,0.3139941493713944,0
1537844491.931226,591,0,2591.99406075,0.761260986328125,0.55438232421875,0.1437530517578125,,,,,0
1537844491.931733,592,0,2592.00386275,0.748138427734375,0.4747314453125,0.1773529052734375,2591.99288275,0.2253076892784477,0.0568773977169313,0.4525767966997387,0
1537844491.932276,593,0,2592.01364975,0.7431488037109375,0.3642120361328125,0.088409423828125,2592.01289575,0.4906847676860095,0.9197823372672826,1.227676516161851,0
1537844491.956114,594,0,2592.02346875,0.818084716796875,0.2996978759765625,-0.0348358154296875,,,,,0
1537844491.962505,595,0,2592.03327275,0.944610595703125,0.281829833984375,-0.1056671142578125,2592.02290275,0.5655100069373119,1.013636395139419,1.530332523508342,0
1537844491.96352,596,0,2592.04306975,1.038360595703125,0.2666778564453125,-0.1876220703125,2592.04291275,0.5985667602840294,0.3591211477266781,1.551568570040633,0
1537844491.963921,597,0,2592.05287975,1.050399780273438,0.31744384765625,-0.2425079345703125,,,,,0
1537844491.964263,598,0,2592.06268475,1.036148071289062,0.318450927734375,-0.2696380615234375,2592.05292275,0.5852493569369792,-0.04141961180178438,1.491577138061073,0
1537844491.964624,599,0,2592.07247075,0.983795166015625,0.3656005859375,-0.2653961181640625,2592.06292275,0.5353204128201736,-0.3367631114271359,1.446402469122277,0
1537844491.964977,600,0,2592.08228075,0.950958251953125,0.4709320068359375,-0.2427978515625,2592.07292675,0.5308724011675233,-0.2960524331075306,1.369337245078109,0
1537844491.96533,601,0,2592.09208275,0.95703125,0.5454254150390625,-0.1754150390625,2592.08294175,0.63750430594986,0.001820803237287175,1.222223960146022,0
1537844491.965767,602,0,2592.10190375,0.9789886474609375,0.6323394775390625,-0.1136016845703125,,,,,0
1537844491.966184,603,0,2592.11168875,0.946044921875,0.64215087890625,-0.0910491943359375,2592.10294075,1.016791175766727,0.5927533459404954,0.5099399549995005,0
1537844491.966545,604,0,2592.12151075,0.763824462890625,0.577728271484375,-0.040985107421875,2592.11296275,1.076809239357189,0.8637675374274281,-0.1637921302070344,0
1537844491.966818,605,0,2592.13130475,0.4606170654296875,0.513946533203125,-0.0044097900390625,,,,,0
1537844491.96722,606,0,2592.14111175,0.217132568359375,0.363189697265625,0.0488128662109375,2592.13296975,1.411036488794351,1.393194641071365,-0.7535470230762096,0
1537844491.967619,607,0,2592.15092775,0.0957794189453125,0.2362518310546875,0.0898895263671875,2592.14298175,1.514489111867351,1.565407154013012,-0.7100954193626948,0
1537844491.968234,608,0,2592.16072375,0.03619384765625,0.166015625,0.089111328125,,,,,0
1537844491.968712,609,0,2592.17052775,0.112823486328125,0.11083984375,0.0883331298828125,2592.16296775,1.72536779435975,1.615915601983019,-0.3801478697972897,0
1537844491.969277,610,0,2592.18033375,0.29998779296875,0.152130126953125,0.0838470458984375,2592.17300275,1.845417769978342,1.721677185721118,-0.2902118545208778,0
1537844491.96964,611,0,2592.19014075,0.4739227294921875,0.181671142578125,0.081329345703125,,,,,0
1537844491.970073,612,0,2592.19993675,0.64349365234375,0.2048492431640625,0.031646728515625,2592.19299275,1.779489086664558,1.718787123306164,-0.3824965115626306,0
1537844491.970373,613,0,2592.20975275,0.793914794921875,0.1888427734375,-0.0828704833984375,,,,,0
1537844491.970725,614,0,2592.21955975,0.9041595458984375,0.1860504150390625,-0.1614990234375,2592.20302175,1.489472441851583,1.405917893179219,-0.3852510190780996,0
1537844491.971086,615,0,2592.22936575,0.9849090576171875,0.2301483154296875,-0.26470947265625,2592.21302775,1.112323025125614,1.046036412961323,-0.3097008673780777,0
1537844491.971446,616,0,2592.23915375,1.068954467773438,0.311187744140625,-0.3260498046875,2592.22303175,0.756620044658052,0.61716973944656,-0.2344782844921355,0
1537844491.97806,617,0,2592.24897175,1.105117797851562,0.4935150146484375,-0.292755126953125,2592.23304275,0.5897740676290238,0.02190050522426662,-0.2466350822361292,0
1537844491.978903,618,0,2592.25877575,1.140548706054688,0.6339111328125,-0.156158447265625,2592.24304975,0.6542337512855197,-0.4843517706138011,-0.3774873718683006,0
1537844491.979424,619,0,2592.26856275,1.208282470703125,0.7324371337890625,-0.0416717529296875,2592.25305375,0.7707822027028755,-0.4795724617215449,-0.672529401658255,0
1537844491.980178,620,0,2592.27838475,1.196929931640625,0.8142242431640625,0.04107666015625,2592.26303875,0.8374011773712076,-0.02063124264873485,-0.9682974091613652,0
1537844491.980678,621,0,2592.28818875,1.086471557617188,0.82049560546875,0.107635498046875,2592.27307075,0.856135450375479,0.100759900894821,-1.039338030187556,0
1537844491.981061,622,0,2592.29798075,1.020751953125,0.74151611328125,0.118499755859375,2592.28307475,0.9323860134421917,0.05333059977716377,-0.9977122897173993,0
1537844491.981425,623,0,2592.30779575,0.9810028076171875,0.7088165283203125,0.04315185546875,2592.29308275,0.8329068267155898,0.2035227652454905,-0.8165989597804896,0
1537844491.9818,624,0,2592.31759575,0.9792022705078125,0.7882843017578125,-0.0541534423828125,2592.30308975,0.5717854797299746,0.7669829370917683,-0.4665743713891952,0
1537844491.982162,625,0,2592.32740375,1.104339599609375,0.9168243408203125,-0.1378173828125,2592.31309375,0.3794695626676465,1.219441223122999,-0.06493372633053,0
1537844491.982525,626,0,2592.33720875,1.335723876953125,1.056472778320312,-0.2242279052734375,2592.32309375,0.4045815738504397,1.18202514138793,0.1476334002929786,0
1537844491.982882,627,0,2592.34698975,1.568405151367188,1.1077880859375,-0.224700927734375,2592.33311075,0.4356356300574177,0.6417342047092328,-0.116489595557265,0
1537844491.9835,628,0,2592.35680275,1.652984619140625,1.046157836914062,-0.138824462890625,2592.34311475,0.3882015352497983,0.3346786552419309,-0.5302036814178044,0
1537844491.983914,629,0,2592.36662475,1.640609741210938,0.9243011474609375,-0.01605224609375,2592.35309575,0.2392631860226809,0.4171929731925099,-0.811503533666841,0
1537844491.984355,630,0,2592.37640875,1.719268798828125,0.8212738037109375,0.087921142578125,2592.37313375,0.241013948123299,0.8385133134424246,-0.681465638696016,0
1537844491.984624,631,0,2592.38623275,1.713714599609375,0.7975311279296875,0.203765869140625,,,,,0
1537844491.985195,632,0,2592.39603775,1.599166870117188,0.69854736328125,0.2041778564453125,2592.38312475,0.5774063475266958,0.8512184560548657,-0.4192031271833017,0
1537844491.98581,633,0,2592.40582675,1.4642333984375,0.72369384765625,0.151458740234375,2592.40315375,1.125074240424913,1.284868166887411,-0.1771143272440468,0
1537844491.986192,634,0,2592.41564575,1.199874877929688,0.726654052734375,0.031585693359375,,,,,0
1537844491.986519,635,0,2592.42543675,0.89019775390625,0.7297515869140625,-0.0974273681640625,2592.41315375,1.2271665208131,1.399014979633733,-0.1002110233941556,0
1537844491.986872,636,0,2592.43524275,0.69384765625,0.720977783203125,-0.1677703857421875,2592.42316875,1.294359140380236,1.501359195061043,-0.04062439190028672,0
1537844491.987526,637,0,2592.44504275,0.6086578369140625,0.71826171875,-0.1473541259765625,2592.43317275,1.394424222546655,1.716403860446652,-0.07424307223701099,0
1537844491.98823,638,0,2592.45486275,0.494873046875,0.7277679443359375,-0.1212005615234375,2592.44318375,1.496862181244335,1.949288775658593,-0.1303462890250562,0
1537844492.040499,639,0,2592.46466575,0.3783111572265625,0.683929443359375,-0.1140899658203125,2592.46319275,1.53146303539108,1.937246493841473,-0.1703890465432697,0
1537844492.045812,640,0,2592.47447075,0.3244781494140625,0.617401123046875,-0.163726806640625,,,,,0
1537844492.046624,641,0,2592.48427575,0.323333740234375,0.5785369873046875,-0.257476806640625,2592.47320175,1.531548789178181,1.648569152740699,-0.2992732601298724,0
1537844492.047368,642,0,2592.49406275,0.352294921875,0.6722259521484375,-0.2810211181640625,2592.48320875,1.462597950659375,1.339560707246042,-0.695080250820719,0
1537844492.047851,643,0,2592.50388375,0.401275634765625,0.8284759521484375,-0.2429351806640625,2592.49321275,1.274414726976632,1.213895190152908,-1.1243850143348,0
1537844492.048249,644,0,2592.51368775,0.4009246826171875,0.6739654541015625,-0.246917724609375,2592.50322275,1.112797067799647,0.9233994426598283,-1.350805638632792,0
1537844492.048725,645,0,2592.52348175,0.3444366455078125,0.4605865478515625,-0.267303466796875,2592.52323275,0.6762953777557361,0.3166059114524351,-1.000183703208993,0
1537844492.049162,646,0,2592.53329575,0.3738555908203125,0.29254150390625,-0.2260894775390625,,,,,0
1537844492.049502,647,0,2592.54310075,0.439422607421875,0.2092132568359375,-0.2013092041015625,2592.53324275,0.3353628213259722,0.1952006531551019,-0.7097625242264348,0
1537844492.04995,648,0,2592.55289975,0.522552490234375,0.2050018310546875,-0.2631683349609375,2592.55325575,-0.1745702094546941,-0.3098675812623166,-0.3798357473175324,0
1537844492.050223,649,0,2592.56270875,0.6237335205078125,0.261962890625,-0.32403564453125,,,,,0
1537844492.05057,650,0,2592.57251475,0.722015380859375,0.315521240234375,-0.327667236328125,2592.56323675,-0.3619763227313521,-0.4615894664607849,-0.2698085784614537,0
1537844492.050865,651,0,2592.58231775,0.794708251953125,0.3580780029296875,-0.354095458984375,,,,,0
1537844492.05143,652,0,2592.59212275,0.8736724853515625,0.3864593505859375,-0.325714111328125,2592.58325675,-0.6088204631130525,-0.3350754662443526,-0.1369088505832295,0
1537844492.051849,653,0,2592.60192775,0.9342498779296875,0.429962158203125,-0.268218994140625,2592.59325775,-0.7774049517016844,-0.3701354493630278,-0.2747540686057309,0
1537844492.05208,654,0,2592.61173175,0.9348297119140625,0.4903106689453125,-0.1550140380859375,,,,,0
1537844492.052519,655,0,2592.62153775,0.8948516845703125,0.5816650390625,-0.0240478515625,2592.61328675,-1.141412733712549,-0.3049002531971008,-0.7264733274344641,0
1537844492.05279,656,0,2592.63132175,0.9363250732421875,0.554412841796875,0.071990966796875,,,,,0
1537844492.053109,657,0,2592.64114675,0.9072265625,0.5200958251953125,0.1556549072265625,2592.62328475,-1.0380591802321,-0.07010718306411794,-0.6856236321059567,0
1537844492.053549,658,0,2592.65095275,0.8139801025390625,0.5337066650390625,0.227294921875,2592.64331575,-0.544846007407169,0.03554308054041553,-0.4618738920652053,0
1537844492.05382,659,0,2592.66074075,0.7522125244140625,0.5301971435546875,0.24102783203125,,,,,0
1537844492.054131,660,0,2592.67056075,0.688262939453125,0.5369415283203125,0.1690521240234375,2592.65330475,-0.4228460652384211,0.1833796800245672,-0.5352509043157225,0
1537844492.054568,661,0,2592.68036575,0.699981689453125,0.49072265625,0.0637969970703125,2592.67331375,-0.339424674620561,0.2032082459207522,-0.5675742230982322,0
1537844492.054834,662,0,2592.69015975,0.736297607421875,0.518096923828125,0.0012359619140625,,,,,0
1537844492.055133,663,0,2592.69997575,0.6800689697265625,0.591705322265625,-0.0781402587890625,2592.68332575,-0.2946180545444139,0.2861963402292563,-0.4175066935689213,0
1537844492.062243,664,0,2592.70978175,0.6694183349609375,0.6075592041015625,-0.13031005859375,2592.70335175,-0.4578581114574748,0.5080664211726297,-0.1736570115169059,0
1537844492.062823,665,0,2592.71957875,0.656951904296875,0.585723876953125,-0.13330078125,,,,,0
1537844492.093527,666,0,2592.72939275,0.637664794921875,0.5918731689453125,-0.1352081298828125,2592.71335875,-0.5961033362757061,0.7418541479941078,-0.1427347817838868,0
1537844492.130705,667,0,2592.73919675,0.5816802978515625,0.567230224609375,-0.1791839599609375,2592.73337275,-0.9849456280837775,1.121189753658923,-0.1080162159169599,0
1537844492.131439,668,0,2592.74898275,0.5571746826171875,0.543243408203125,-0.2073516845703125,,,,,0
1537844492.131907,669,0,2592.75880875,0.620635986328125,0.5815277099609375,-0.226104736328125,2592.74335475,-0.9874394121285277,1.150797447077879,0.001479385985539017,0
1537844492.132445,670,0,2592.76861175,0.7622833251953125,0.6297454833984375,-0.261749267578125,2592.76339175,-0.3461731248228219,0.8314705839397101,0.2938665104847936,0
1537844492.132794,671,0,2592.77840775,0.9522552490234375,0.6953277587890625,-0.2619781494140625,,,,,0
1537844492.134403,672,0,2592.78820075,1.079925537109375,0.6934356689453125,-0.2307891845703125,2592.77338475,-0.1603473313370169,0.5583748657447716,0.3819945056971507,0
1537844492.146241,673,0,2592.79800375,1.144180297851562,0.715972900390625,-0.09814453125,2592.79341275,-0.812914476412365,-0.2735250197626593,0.3357367291430193,0
1537844492.149919,674,0,2592.80781375,1.173736572265625,0.697052001953125,0.13287353515625,,,,,0
1537844492.181967,675,0,2592.81761575,1.160186767578125,0.665130615234375,0.317626953125,2592.80341375,-1.11938413043985,-0.2876964988712979,0.1505058858447381,0
1537844492.212306,676,0,2592.82741775,1.040206909179688,0.614013671875,0.3623199462890625,2592.82343175,-0.6560004923526783,0.8594809133368365,0.1999149809167602,0
1537844492.213029,677,0,2592.83722975,0.8841552734375,0.6302947998046875,0.2913665771484375,,,,,0
1537844492.213415,678,0,2592.84702575,0.7767181396484375,0.6523895263671875,0.179718017578125,2592.83341275,-0.2231633119687159,1.544925048385322,0.4708998776317019,0
1537844492.213812,679,0,2592.85684675,0.6774444580078125,0.7864227294921875,0.04541015625,2592.85345075,0.5440443959190552,2.16204711724837,0.8385215692418039,0
1537844492.214094,680,0,2592.86664875,0.67706298828125,0.95062255859375,-0.081695556640625,,,,,0
1537844492.21802,681,0,2592.87645275,0.7166748046875,1.018218994140625,-0.1839141845703125,2592.86343275,0.8144639035345731,1.880726758658939,0.7198116962837399,0
1537844492.229408,682,0,2592.88626575,0.716552734375,1.027618408203125,-0.3011932373046875,2592.88347175,1.058346608784105,0.5938545630512432,-0.089502452650947,0
1537844492.238248,683,0,2592.89606175,0.731903076171875,0.9672393798828125,-0.274505615234375,,,,,0
1537844492.292287,684,0,2592.90586675,0.808807373046875,0.9049072265625,-0.16534423828125,2592.89346975,0.6842987094636422,0.1254207725889547,-0.4147878724120594,0
1537844492.327098,685,0,2592.91568475,0.9158172607421875,0.8433990478515625,-0.0791778564453125,2592.91349075,-0.3020189792137441,-0.1768432174450767,-0.3437842693250208,0
1537844492.362888,686,0,2592.92549075,1.060012817382812,0.665924072265625,-0.0363616943359375,,,,,0
1537844492.385395,687,0,2592.93529375,1.107131958007812,0.508575439453125,0.0230865478515625,,,,,0
1537844492.42837,688,0,2592.94507275,1.134063720703125,0.4466705322265625,0.053009033203125,2592.93350675,-0.5521420035295501,-0.1656398313713313,0.0712321023085674,0
1537844492.462455,689,0,2592.95485675,1.148452758789062,0.456634521484375,0.0493316650390625,2592.94351075,-0.6582737666591699,-0.1558599049002334,0.2117782983086271,0
1537844492.51886,690,0,2592.96466075,1.128662109375,0.55194091796875,0.037872314453125,2592.95349775,-0.8842903894197967,-0.08953707374511803,0.1365112406324807,0
1537844492.543717,691,0,2592.97446175,1.083038330078125,0.613800048828125,0.1167449951171875,2592.96352575,-1.236538184689089,-0.06660645781120877,-0.05586033649663004,0
1537844492.593752,692,0,2592.98426475,1.065048217773438,0.5753021240234375,0.13427734375,2592.97352975,-1.618554794623288,-0.456586452036962,-0.2678112076438943,0
1537844492.621485,693,0,2592.99407675,1.091537475585938,0.55218505859375,0.13812255859375,2592.98353075,-1.946174208763745,-0.8536472589690179,-0.3150687348712414,0
1537844492.643425,694,0,2593.003824791667,1.131088256835938,0.444122314453125,0.1262969970703125,2592.993499791667,-2.049704063508358,-1.205922751113647,-0.3220084000397699,0
1537844492.697282,695,0,2593.013635791667,1.108795166015625,0.405059814453125,0.035736083984375,2593.003503791667,-1.873858199891516,-1.52048655064221,-0.3657897030962365,0
1537844492.712239,696,0,2593.023440791667,1.053482055664062,0.324066162109375,0.040740966796875,2593.013516791667,-1.769642847482317,-1.470337096787146,-0.4482046851381556,0
1537844492.784356,697,0,2593.033242791667,0.8169097900390625,0.2071380615234375,0.18243408203125,2593.033529791667,-1.736955208262684,-0.9998534712338231,-1.61063508617361,0
1537844492.784967,698,0,2593.043059791667,0.634918212890625,0.3676605224609375,0.131011962890625,,,,,0
1537844492.811869,699,0,2593.052871791667,0.4530487060546875,0.4757080078125,0.194610595703125,2593.043514791667,-1.643935252443961,-0.2492082284813638,-2.27910689559502,0
1537844492.84099,700,0,2593.062660791667,0.2929229736328125,0.472442626953125,0.2332916259765625,2593.053543791667,-1.579781832312824,0.1770091323809886,-2.798403334452296,0
1537844492.880546,701,0,2593.072479791667,0.183746337890625,0.4182586669921875,0.1529388427734375,2593.063547791667,-1.592500024414606,0.2457274769366302,-3.070744845426524,0
1537844492.918169,702,0,2593.082283791667,0.162353515625,0.3492584228515625,0.1540679931640625,,,,,0
1537844492.962954,703,0,2593.092085791667,0.192291259765625,0.285491943359375,0.2065277099609375,2593.083564791667,-1.744524977345126,0.1909768796662362,-2.91100604639859,0
1537844492.997437,704,0,2593.101890791667,0.2055816650390625,0.2476348876953125,0.2275390625,2593.093568791667,-1.704741079084868,-0.2259026394659714,-2.530290923289114,0
1537844493.02843,705,0,2593.111695791667,0.2052154541015625,0.260284423828125,0.2523651123046875,2593.103565791667,-1.388476318568072,-0.998672092974264,-2.058831249196277,0
1537844493.063425,706,0,2593.121487791667,0.261871337890625,0.3025054931640625,0.340606689453125,2593.113584791667,-0.8101282772799241,-1.539650924162529,-1.636502636157659,0
1537844493.091015,707,0,2593.131303791667,0.4513092041015625,0.3561859130859375,0.535919189453125,2593.123588791667,-0.3345042181905307,-1.669246468076292,-1.499600709793263,0
1537844493.098125,708,0,2593.141107791667,0.568359375,0.43817138671875,0.49420166015625,2593.133595791667,-0.1652091982230655,-1.92373121762543,-1.711179271020135,0
1537844493.098941,709,0,2593.150910791667,0.597503662109375,0.4807586669921875,0.2514801025390625,2593.153584791667,-0.1808712485938215,-1.91921849115829,-3.016575616222095,0
1537844493.099283,710,0,2593.160714791667,0.668487548828125,0.5769805908203125,0.1930389404296875,,,,,0
1537844493.099523,711,0,2593.170517791667,0.708465576171875,0.675689697265625,0.1915130615234375,,,,,0
1537844493.099837,712,0,2593.180321791667,0.6811981201171875,0.732330322265625,0.2842254638671875,2593.163616791667,-0.09023056089297467,-1.495901845355252,-3.86587473207934,0
1537844493.100283,713,0,2593.190124791667,0.595062255859375,0.71759033203125,0.3290557861328125,2593.183618791667,0.4518436284516399,-0.9624134210489441,-5.069371876072143,0
1537844493.100569,714,0,2593.199927791667,0.53564453125,0.66290283203125,0.295257568359375,,,,,0
1537844493.101004,715,0,2593.209730791667,0.4805755615234375,0.6109466552734375,0.25799560546875,2593.193634791667,0.7687214486513722,-1.176850353073797,-5.423576562110426,0
1537844493.101567,716,0,2593.219521791667,0.4227294921875,0.542755126953125,0.2454833984375,2593.213647791667,1.07375406095465,-1.643782120681281,-5.895339570251423,0
1537844493.102154,717,0,2593.229337791667,0.402374267578125,0.4363250732421875,0.29058837890625,2593.223654791667,1.042986560880965,-1.222587747950927,-6.146006944694041,0
1537844493.102447,718,0,2593.239141791667,0.4185028076171875,0.3917999267578125,0.2984619140625,,,,,0
1537844493.102992,719,0,2593.248945791667,0.468017578125,0.40155029296875,0.286712646484375,2593.243646791667,1.037867432633614,0.1058998017986739,-6.38617773601622,0
1537844493.103329,720,0,2593.258735791667,0.4738311767578125,0.355804443359375,0.1516265869140625,,,,,0
1537844493.103658,721,0,2593.268550791667,0.459625244140625,0.317779541015625,0.10906982421875,2593.253675791667,1.374543192376995,0.2617554456411631,-6.256040238820627,0
1537844493.104082,722,0,2593.278359791667,0.34405517578125,0.2941741943359375,0.04864501953125,2593.273688791667,1.955653464347773,-0.2977944067765514,-6.137203066762457,0
1537844493.104431,723,0,2593.288150791667,0.20684814453125,0.2248687744140625,0.029510498046875,2593.283694791667,1.442557130824311,-0.8915669444662202,-5.880160084670189,0
1537844493.104857,724,0,2593.297967791667,0.0929412841796875,0.2160186767578125,0.11041259765625,2593.303706791667,-0.3271933083660451,-1.921754086832155,-4.772887478235802,0
1537844493.105121,725,0,2593.307770791667,0.0418853759765625,0.310821533203125,0.2155303955078125,,,,,0
1537844493.105344,726,0,2593.317555791667,0.16082763671875,0.4410552978515625,0.1750640869140625,,,,,0
1537844493.113265,727,0,2593.327378791667,0.15460205078125,0.644866943359375,0.1590423583984375,2593.313713791667,-0.8339225563553461,-1.581109418116228,-4.074232732599978,0
1537844493.114132,728,0,2593.337183791667,0.028167724609375,0.907684326171875,0.127593994140625,2593.333725791667,-1.567881230665696,0.8257226833589921,-2.752010269314789,0
1537844493.114507,729,0,2593.346977791667,-0.06646728515625,1.197982788085938,0.1209259033203125,,,,,0
1537844493.114939,730,0,2593.356790791667,-0.1569366455078125,1.539520263671875,0.2100372314453125,2593.343733791667,-1.909426314146178,2.248140457387906,-2.587194153668619,0
1537844493.115484,731,0,2593.366585791667,-0.2407073974609375,2.29974365234375,0.3169403076171875,2593.363745791667,-1.838505269052932,2.954597998701552,-4.549042397028026,0
1537844493.115911,732,0,2593.376393791667,-0.4701690673828125,2.8525390625,0.3091888427734375,,,,,0
1537844493.116268,733,0,2593.386202791667,-0.7267608642578125,2.522445678710938,0.0823516845703125,2593.373755791667,-1.231097346582057,1.727451984228846,-4.206500758667636,0
1537844493.11663,734,0,2593.396007791667,-0.859039306640625,2.023208618164062,-0.031219482421875,2593.383758791667,-0.613406959142387,0.3916881457489301,-2.45128904850024,0
1537844493.11698,735,0,2593.405808791667,-1.0447998046875,1.63037109375,-0.0241241455078125,2593.393762791667,-0.1598306780855415,-0.7735939681817811,0.2236578609831436,0
1537844493.117326,736,0,2593.415611791667,-1.276229858398438,1.188278198242188,0.0716400146484375,2593.403775791667,-0.04513152572913682,-1.268606905271387,1.86724530458874,0
1537844493.11767,737,0,2593.425393791667,-0.8802642822265625,0.8143463134765625,0.213470458984375,2593.413781791667,-0.158973672846754,-1.124085142396057,2.005635139054163,0
1537844493.118019,738,0,2593.435218791667,-0.5452117919921875,0.5138397216796875,0.234771728515625,2593.423785791667,-0.4991589462746417,-0.845748589491952,1.656975953353752,0
1537844493.118365,739,0,2593.445015791667,-0.3548736572265625,0.3710479736328125,0.2474517822265625,2593.433774791667,-0.9600748992957455,-0.6052030914043979,1.346785330651209,0
1537844493.118736,740,0,2593.454822791667,-0.321929931640625,0.4174041748046875,0.26751708984375,2593.443800791667,-1.256463955965062,-0.5613394966702477,1.367923372855385,0
1537844493.119097,741,0,2593.464624791667,-0.430389404296875,0.565704345703125,0.3156890869140625,2593.453804791667,-1.351178214869294,-0.5510445148443285,1.44678543168703,0
1537844493.119441,742,0,2593.474411791667,-0.4902191162109375,0.702301025390625,0.3938446044921875,2593.463794791667,-1.289667183171734,-0.4099899213921726,1.443160336811214,0
1537844493.119787,743,0,2593.484223791667,-0.4980316162109375,0.8011016845703125,0.4698333740234375,2593.473820791667,-1.086661337493828,-0.1523796859877178,1.430521240593807,0
1537844493.120322,744,0,2593.494027791667,-0.500030517578125,0.9224090576171875,0.47064208984375,2593.483824791667,-0.7890056814100697,0.07453522100859268,1.432934064541419,0
1537844493.120845,745,0,2593.503828791667,-0.516265869140625,1.061782836914062,0.401824951171875,2593.503839791667,-0.2435705827697751,0.325476901043489,1.28747513527849,0
1537844493.12109,746,0,2593.513619791667,-0.501678466796875,1.173629760742188,0.3157958984375,,,,,0
1537844493.1215,747,0,2593.523440791667,-0.5069122314453125,1.234603881835938,0.24078369140625,2593.513843791667,-0.1915952656713526,0.4360923621843663,1.199808665883043,0
1537844493.122035,748,0,2593.533242791667,-0.55328369140625,1.272186279296875,0.1790924072265625,2593.523851791667,-0.247801813109693,0.3769456849025784,1.105915193226774,0
1537844493.128175,749,0,2593.543028791667,-0.6396026611328125,1.27984619140625,0.1491546630859375,2593.533858791667,-0.3759797563752067,0.3877764947398217,0.8797054912871163,0
1537844493.128976,750,0,2593.552844791667,-0.703704833984375,1.320831298828125,0.18048095703125,2593.543862791667,-0.4985016781176101,0.517352064945409,0.5216091279479007,0
1537844493.129542,751,0,2593.562629791667,-0.805633544921875,1.310134887695312,0.246185302734375,2593.553871791667,-0.4709438197896882,0.6638379091246724,0.1659897707385678,0
1537844493.129874,752,0,2593.572447791667,-0.843048095703125,1.263229370117188,0.320220947265625,2593.563880791667,-0.3393841945719919,0.868469348331963,-0.08564939118582036,0
1537844493.130249,753,0,2593.582241791667,-0.817169189453125,1.193038940429688,0.3981781005859375,2593.573884791667,-0.1839205680419623,1.17277731450263,-0.221655696475622,0
1537844493.130625,754,0,2593.592056791667,-0.7360992431640625,1.1593017578125,0.4686279296875,2593.583891791667,0.01877688358171268,1.364483633991439,-0.3691178555105085,0
1537844493.131184,755,0,2593.601853791667,-0.6562347412109375,1.160888671875,0.4734344482421875,2593.603904791667,0.3173358839072258,1.339231806851417,-0.5672415942780814,0
1537844493.131723,756,0,2593.611661791667,-0.5958404541015625,1.182037353515625,0.4446868896484375,,,,,0
1537844493.156471,757,0,2593.621463791667,-0.5232086181640625,1.213150024414062,0.381866455078125,,,,,0
1537844493.163047,758,0,2593.631267791667,-0.4456024169921875,1.216812133789062,0.3179168701171875,2593.623893791667,0.2910861703067508,1.300414636066858,-0.7611349016540634,0
1537844493.163727,759,0,2593.641069791667,-0.394439697265625,1.192550659179688,0.28106689453125,2593.633897791667,0.2610595616483254,1.333739037103128,-0.8352104610585084,0
1537844493.164187,760,0,2593.650887791667,-0.3598175048828125,1.1544189453125,0.274566650390625,2593.643930791667,0.2321317732556667,1.48252585246422,-0.9314512438995739,0
1537844493.164754,761,0,2593.660691791667,-0.3558502197265625,1.1043701171875,0.2602996826171875,,,,,0
1537844493.165365,762,0,2593.670496791667,-0.3690185546875,1.039764404296875,0.2246551513671875,2593.663934791667,0.1640587126321513,1.817201578228952,-1.250041742996336,0
1537844493.165671,763,0,2593.680300791667,-0.377716064453125,0.969482421875,0.1850738525390625,,,,,0
1537844493.166119,764,0,2593.690105791667,-0.3763427734375,0.9036865234375,0.158477783203125,2593.673949791667,0.1324911989670061,1.881900413751337,-1.37657678218538,0
1537844493.166799,765,0,2593.699898791667,-0.3757781982421875,0.841339111328125,0.113189697265625,2593.693964791667,0.1809298381378033,1.85184211347594,-1.413145978693803,0
1537844493.167525,766,0,2593.709694791667,-0.381072998046875,0.793365478515625,0.1025543212890625,,,,,0
1537844493.167932,767,0,2593.719516791667,-0.3701171875,0.755096435546875,0.1229095458984375,2593.703968791667,0.1999938104850265,1.949063738546481,-1.335901257592164,0
1537844493.168378,768,0,2593.729320791667,-0.3586273193359375,0.7140350341796875,0.1363983154296875,2593.723962791667,0.1587611525917657,2.169374006039395,-1.140866253056865,0
1537844493.168785,769,0,2593.739113791667,-0.3382415771484375,0.6734619140625,0.14202880859375,,,,,0
1537844493.169179,770,0,2593.748927791667,-0.3066864013671875,0.6390838623046875,0.1437225341796875,2593.733989791667,0.08820709109673247,2.230743357566963,-1.044027057918858,0
1537844493.169629,771,0,2593.758731791667,-0.276763916015625,0.631317138671875,0.143310546875,2593.753992791667,-0.06782325611326598,2.20866229002079,-0.9101459551789399,0
1537844493.169995,772,0,2593.768532791667,-0.258148193359375,0.6346435546875,0.1320648193359375,2593.764009791667,-0.07608438181469178,2.154136996178616,-0.8363036886859859,0
1537844493.170273,773,0,2593.778339791667,-0.25128173828125,0.64996337890625,0.1204071044921875,,,,,0
1537844493.170666,774,0,2593.788143791667,-0.270782470703125,0.6837615966796875,0.094573974609375,2593.774017791667,0.01135731678475192,2.061507459775698,-0.7452121278125886,0
1537844493.171212,775,0,2593.797944791667,-0.314422607421875,0.726409912109375,0.068817138671875,2593.784021791667,0.188077762503576,1.955170633242142,-0.6381858088728112,0
1537844493.171607,776,0,2593.807752791667,-0.3649444580078125,0.7715911865234375,0.041534423828125,2593.794003791667,0.3764340916571742,1.813917367972666,-0.5190578196236048,0
1537844493.171957,777,0,2593.817556791667,-0.39599609375,0.8121185302734375,0.0166015625,2593.804015791667,0.4842574947112123,1.599327570501242,-0.4193831568729911,0
1537844493.178014,778,0,2593.827356791667,-0.4091644287109375,0.8395233154296875,0.00421142578125,2593.814019791667,0.5349481028997806,1.343191661076256,-0.3423570812968473,0
1537844493.180906,779,0,2593.837163791667,-0.4193267822265625,0.8689727783203125,0.015472412109375,2593.824048791667,0.5529185813034172,1.14302581038481,-0.2980508691895261,0
1537844493.194717,780,0,2593.846962791667,-0.420440673828125,0.88629150390625,0.032928466796875,2593.834045791667,0.5559849449825345,1.021269813771913,-0.2672719175231533,0
1537844493.202267,781,0,2593.856764791667,-0.4183502197265625,0.8834381103515625,0.0342559814453125,2593.844049791667,0.5164231543571893,0.9387642842529315,-0.2404211284646474,0
1537844493.211017,782,0,2593.866574791667,-0.4267578125,0.88287353515625,0.0141754150390625,2593.854069791667,0.3979764017148252,0.8372933193470593,-0.2035818874216903,0
1537844493.241695,783,0,2593.876379791667,-0.436004638671875,0.8793182373046875,-0.0146636962890625,2593.864074791667,0.2197629878889027,0.7401894059966991,-0.1567334217377793,0
1537844493.248452,784,0,2593.886184791667,-0.4440460205078125,0.883331298828125,-0.0441741943359375,2593.874078791667,0.03624295927488835,0.6346001287811285,-0.1098756349900532,0
1537844493.249212,785,0,2593.895976791667,-0.473388671875,0.8871612548828125,-0.054168701171875,2593.884075791667,-0.1076907776317522,0.5330953417294124,-0.07862477117851836,0
1537844493.249691,786,0,2593.905795791667,-0.5168304443359375,0.8866729736328125,-0.0471649169921875,2593.894073791667,-0.1888388939431206,0.4548918826353446,-0.0479707217672703,0
1537844493.261932,787,0,2593.915601791667,-0.5682220458984375,0.8781890869140625,-0.0265655517578125,2593.904077791667,-0.2178066297521305,0.3989061112513718,-0.02121048018582708,0
1537844493.268872,788,0,2593.925405791667,-0.6103057861328125,0.8582000732421875,-0.001739501953125,2593.914089791667,-0.2125197223561052,0.3840960061133322,-0.01571771043753866,0
1537844493.278965,789,0,2593.935210791667,-0.6428680419921875,0.83258056640625,0.032012939453125,2593.924114791667,-0.1932501539727279,0.4115606538031014,-0.02851206894649733,0
