loggingTime,loggingSample,identifierForVendor,accelerometerTimestamp_sinceReboot,accelerometerAccelerationX,accelerometerAccelerationY,accelerometerAccelerationZ,gyroTimestamp_sinceReboot,gyroRotationX,gyroRotationY,gyroRotationZ,label
1538157416.074511,1,0,72031.2394035,0.282684326171875,-0.3143157958984375,-0.6762542724609375,72031.23098750001,1.319269283952401,1.649215501937261,1.095378130057766,5
1538157416.083454,2,0,72031.2492085,0.1889801025390625,-0.41302490234375,-0.87322998046875,72031.2409875,0.9941186201424465,2.018803405380168,1.233108033205067,5
1538157416.203822,3,0,72031.25901350001,0.17431640625,-0.3932647705078125,-0.9790802001953125,72031.25099850001,0.6701093871757,1.659592242808646,1.146180857328227,5
1538157416.205825,4,0,72031.2688185,0.207000732421875,-0.307769775390625,-0.99957275390625,72031.2610025,0.3927203869874448,0.7497703943343682,0.8294628267938994,5
1538157416.215755,5,0,72031.2785935,0.2439117431640625,-0.309539794921875,-1.052810668945312,72031.27098650001,-0.07271601566795956,0.09933617497606459,0.4342862063330745,5
1538157416.266509,6,0,72031.2884205,0.1822052001953125,-0.4219818115234375,-1.101181030273438,72031.28098550001,-0.6670600677275593,-0.1423241223437966,0.06028970602164983,5
1538157416.278446,7,0,72031.2982325,0.13372802734375,-0.56683349609375,-1.096572875976562,72031.2909895,-1.036840517717279,-0.3430242031499122,-0.2254091557159797,5
1538157416.279569,8,0,72031.30803650001,0.1510772705078125,-0.6706085205078125,-1.046783447265625,72031.30101550001,-1.027731441524772,-0.3929246514430539,-0.3496011457779719,5
1538157416.28071,9,0,72031.31784050001,0.219879150390625,-0.7225799560546875,-1.004364013671875,72031.3210195,-0.6081924897280118,0.4793650014726278,-0.06843551684787519,5
1538157416.281322,10,0,72031.3276165,0.2891998291015625,-0.7652587890625,-1.029464721679688,,,,,5
1538157416.282455,11,0,72031.3374435,0.279998779296875,-0.82806396484375,-1.023696899414062,72031.33102550001,-0.48834651224892,0.8470841647786267,0.2496729500915826,5
1538157416.283688,12,0,72031.3472285,0.228240966796875,-0.905975341796875,-0.972564697265625,72031.3510335,-0.4974486642225928,1.121082161950884,0.7621445060233124,5
1538157416.284401,13,0,72031.35705950001,0.20721435546875,-0.9162750244140625,-0.9546356201171875,,,,,5
1538157416.285715,14,0,72031.36686350001,0.20526123046875,-0.8502197265625,-0.982635498046875,72031.36104050001,-0.8065346077049712,1.224973673971529,0.8519572169412537,5
1538157416.347001,15,0,72031.37664650001,0.18426513671875,-0.748077392578125,-1.00860595703125,72031.3810485,-1.590093059421393,0.6527402505462032,0.7629842007150144,5
1538157416.352904,16,0,72031.38646950001,0.116241455078125,-0.6241607666015625,-1.032257080078125,,,,,5
1538157416.361008,17,0,72031.39627350001,0.0214691162109375,-0.498321533203125,-1.026779174804688,72031.39107150001,-1.879801310180137,0.09310357907695214,0.6917648815796794,5
1538157416.36238,18,0,72031.4060665,-0.080902099609375,-0.39385986328125,-0.9049224853515625,72031.4010575,-2.028395046362198,-0.4987877016186846,0.581746501155198,5
1538157416.363603,19,0,72031.4158825,-0.20318603515625,-0.2019195556640625,-0.69512939453125,72031.41106150001,-2.078709083572629,-0.6822981428527747,0.4632760463791321,5
1538157416.364473,20,0,72031.42568450001,-0.2667999267578125,-0.2559051513671875,-0.5284881591796875,72031.4210875,-2.247860825473448,-0.2224836732585277,0.3728513410426906,5
1538157416.365326,21,0,72031.43548150001,-0.3514862060546875,-0.4326934814453125,-0.4421844482421875,,,,,5
1538157416.366233,22,0,72031.4452805,-0.35186767578125,-0.5072479248046875,-0.4708251953125,72031.4410875,-2.381849253605296,0.7927932291123804,0.1017476673431313,5
1538157416.367221,23,0,72031.45507150001,-0.2693939208984375,-0.485626220703125,-0.5914306640625,72031.45110250001,-2.409432678279683,0.9413837695011334,-0.01685274969413043,5
1538157416.4161,24,0,72031.46490450001,-0.1585235595703125,-0.4148101806640625,-0.7632904052734375,72031.46108350001,-2.532362063668868,1.043067787294212,-0.1669770045546601,5
1538157416.425037,25,0,72031.47470050001,-0.040679931640625,-0.3077239990234375,-0.934967041015625,72031.4710875,-2.69965012543885,1.343395659215756,-0.2945418881372376,5
1538157416.430716,26,0,72031.48449250001,0.0842742919921875,-0.1672210693359375,-1.092819213867188,72031.4810995,-2.745303630741642,1.570063158546798,-0.3435927880426441,5
1538157416.431455,27,0,72031.4943205,0.162384033203125,-0.0476837158203125,-1.127349853515625,,,,,5
1538157416.433307,28,0,72031.50410450001,0.12982177734375,-0.0352935791015625,-1.118499755859375,72031.50110950001,-2.066670530181034,1.404160739491985,-0.3407173730136855,5
1538157416.434067,29,0,72031.5139315,0.025848388671875,-0.021575927734375,-1.048629760742188,72031.51113350001,-1.296394328085274,1.039915137195776,-0.5655547480436252,5
1538157416.434541,30,0,72031.5237205,-0.020599365234375,0.0172576904296875,-0.8686676025390625,,,,,5
1538157416.436308,31,0,72031.5335245,-0.0537872314453125,0.045318603515625,-0.6764678955078125,72031.5311225,0.7329935447313051,-0.1883672481140676,-1.106619333018991,5
1538157416.437591,32,0,72031.54333450001,-0.057861328125,0.03851318359375,-0.5204315185546875,72031.54114850001,1.436798843915342,-0.7948878053097277,-1.254670316970894,5
1538157416.438238,33,0,72031.5531335,-0.0688323974609375,-0.0294036865234375,-0.4198455810546875,,,,,5
1538157416.439354,34,0,72031.56293850001,-0.0686187744140625,-0.083831787109375,-0.35821533203125,72031.56114450001,1.939285676288147,-2.25384122001733,-1.339782814880954,5
1538157416.440333,35,0,72031.57274650001,-0.1427154541015625,-0.1600799560546875,-0.27685546875,72031.5711635,1.964538302376496,-2.110609226057925,-1.339534075635141,5
1538157416.440948,36,0,72031.5825495,-0.45208740234375,-0.3480682373046875,-0.4135894775390625,,,,,5
1538157416.441795,37,0,72031.5923685,-0.465301513671875,-0.4331817626953125,-1.31072998046875,72031.5911435,0.7401947323188793,3.259488664518729,-0.8138614964959971,5
1538157416.443,38,0,72031.6021725,-0.3654022216796875,-0.56719970703125,-1.647750854492188,72031.60117950001,0.5661251971491201,1.76284779196098,-0.522057071643252,5
1538157416.443965,39,0,72031.6119815,-0.0504608154296875,-0.4647216796875,-1.512252807617188,,,,,5
1538157416.444616,40,0,72031.6217855,0.1988372802734375,-0.2266387939453125,-1.491897583007812,72031.6111675,0.6636975605352253,0.1712497802075833,-0.3929683272849311,5
1538157416.44583,41,0,72031.6315605,0.1901702880859375,-0.2249298095703125,-1.591461181640625,72031.6311955,1.002751523132047,-0.9584884542343853,-0.5781208736471641,5
1538157416.446836,42,0,72031.6413375,0.0165252685546875,-0.3781280517578125,-1.65283203125,,,,,5
1538157416.447459,43,0,72031.6511305,-0.0864715576171875,-0.422088623046875,-1.538253784179688,72031.6411985,1.204278249140524,-2.040786202282118,-0.9291220432101905,5
1538157416.497596,44,0,72031.66095050001,-0.2251434326171875,-0.4107208251953125,-1.347366333007812,72031.6612115,1.641127215390581,-2.894473941299705,-1.573497571088564,5
1538157416.498469,45,0,72031.67075650001,-0.3417510986328125,-0.41607666015625,-1.157012939453125,,,,,5
1538157416.499306,46,0,72031.6805665,-0.3306884765625,-0.4226837158203125,-0.990966796875,72031.6812185,2.063024662648716,-1.679808564959546,-1.453634016746278,5
1538157416.500069,47,0,72031.69035050001,-0.2745208740234375,-0.4969482421875,-0.9269866943359375,72031.69122550001,2.168702623128586,-0.4674228545124944,-1.251757351370565,5
1538157416.500624,48,0,72031.70017150001,-0.1577606201171875,-0.4765625,-0.9686279296875,,,,,5
1538157416.501211,49,0,72031.70997750001,-0.060882568359375,-0.4864959716796875,-1.07366943359375,72031.70120350001,2.242980849091986,0.8926162299357114,-1.033198378610487,5
1538157416.502112,50,0,72031.71976950001,0.085540771484375,-0.43695068359375,-1.364028930664062,72031.72124150001,2.073644816443734,1.090461402053262,-0.3822208743898074,5
1538157416.503046,51,0,72031.72960250001,0.12255859375,-0.5453338623046875,-1.600311279296875,,,,,5
1538157416.508972,52,0,72031.7394075,0.253021240234375,-0.6879730224609375,-1.787612915039062,72031.74122950001,0.5950407350007645,-1.565956031513678,-0.05991979294623782,5
1538157416.510192,53,0,72031.74919050001,0.29315185546875,-0.6336822509765625,-1.717315673828125,,,,,5
1538157416.511171,54,0,72031.7590205,0.2945556640625,-0.387451171875,-1.488052368164062,72031.75125650001,0.2647661492534977,-2.803816209367882,-0.5206860763140791,5
1538157416.512577,55,0,72031.76882550001,0.24810791015625,-0.0538482666015625,-1.171356201171875,72031.7612625,0.2820404773481877,-3.523431630679283,-1.271589379376167,5
1538157416.524762,56,0,72031.77862350001,0.19049072265625,0.0786590576171875,-0.88726806640625,72031.78127250001,0.5243588417734075,-3.370506795616426,-2.453991890690562,5
1538157416.587115,57,0,72031.7884355,0.11328125,-0.0092010498046875,-0.6470947265625,,,,,5
1538157416.588608,58,0,72031.7982415,0.189239501953125,-0.1153564453125,-0.334991455078125,72031.7912775,0.5017709746717914,-2.601129943020786,-2.565482732881748,5
1538157416.589851,59,0,72031.80804650001,0.3138885498046875,-0.312286376953125,-0.173309326171875,72031.80128150001,0.2233880827647186,-1.361849235041133,-2.226037551920793,5
1538157416.593436,60,0,72031.8178545,0.3853607177734375,-0.486572265625,-0.1650543212890625,72031.8112865,-0.2226855408691557,0.01648123872206437,-1.528160981955491,5
1538157416.594471,61,0,72031.8276605,0.41943359375,-0.54571533203125,-0.183441162109375,72031.8312975,-0.9497844448436793,2.179638361512779,0.5652317066033986,5
1538157416.595064,62,0,72031.8374665,0.3962860107421875,-0.5032806396484375,-0.2403106689453125,,,,,5
1538157416.596165,63,0,72031.8472725,0.3526611328125,-0.3713226318359375,-0.3294677734375,72031.8412755,-1.251537640580634,2.706816958248362,1.61725756885631,5
1538157416.600856,64,0,72031.85708050001,0.339691162109375,-0.170379638671875,-0.4172515869140625,72031.8513085,-1.583353663966838,2.787271054779656,2.423009739833016,5
1538157416.664162,65,0,72031.86688450001,0.3460235595703125,0.049713134765625,-0.9279022216796875,72031.8613125,-2.011420590206251,2.712836501260268,2.861350875241845,5
1538157416.665195,66,0,72031.87668850001,0.277587890625,0.222015380859375,-1.400619506835938,72031.87129750001,-2.700802741558636,0.8396536790211966,2.527399795609724,5
1538157416.665939,67,0,72031.88648850001,-0.0068817138671875,0.0423431396484375,-0.7698974609375,72031.8813235,-2.839969952746253,-1.415713532300748,1.601033591495547,5
1538157416.666684,68,0,72031.89629850001,0.059112548828125,0.0052032470703125,-0.5937957763671875,72031.89132750001,-2.060738605168992,-2.250808145851838,1.164598746794997,5
1538157416.667345,69,0,72031.9061035,0.2570343017578125,-0.0107421875,-0.4091949462890625,72031.9013275,-1.011004126717985,-2.003574385002659,0.6290477042244224,5
1538157416.667981,70,0,72031.91590750001,0.4096221923828125,-0.0628662109375,-0.2881011962890625,72031.9113395,0.01957370137986439,-0.8987617404671783,0.1188243888849374,5
1538157416.672411,71,0,72031.9257145,0.494964599609375,-0.2003936767578125,-0.326202392578125,72031.9213435,0.8463861502569169,0.6190139785014398,-0.2602086816800451,5
1538157416.687879,72,0,72031.93549450001,0.471588134765625,-0.4136810302734375,-0.47515869140625,72031.93132450001,1.336544144679309,2.032321078441193,-0.3531657868970429,5
1538157416.743256,73,0,72031.9453265,0.411590576171875,-0.5619964599609375,-0.6330718994140625,72031.9513595,1.739187469888389,3.542063904613804,0.7477141676567181,5
1538157416.744029,74,0,72031.9551335,0.486083984375,-0.54150390625,-0.679290771484375,,,,,5
1538157416.744616,75,0,72031.96494050001,0.5379791259765625,-0.2467803955078125,-0.56146240234375,72031.9613655,1.794203051687246,3.747858079953024,1.594847600915511,5
1538157416.745262,76,0,72031.97474450001,0.6453399658203125,-0.0520782470703125,-0.451080322265625,72031.9713705,1.896292668914343,4.104120856881719,2.057764120547482,5
1538157416.745926,77,0,72031.9845505,0.528350830078125,-0.08966064453125,-0.508087158203125,72031.9813745,1.941321396625403,4.718828503900501,2.10049027918006,5
1538157416.748711,78,0,72031.99435750001,0.4639892578125,-0.070159912109375,-0.697479248046875,72031.9913545,1.978175817686574,5.479827318022862,2.005653781181793,5
1538157416.750073,79,0,72032.0041335,0.58868408203125,0.0789794921875,-0.934234619140625,72032.00138650001,2.146954184402563,5.939070805879396,1.62995498830159,5
1538157416.762636,80,0,72032.0139685,0.7938690185546875,0.221771240234375,-0.991424560546875,72032.0113905,2.572862884894576,5.899613411168782,0.7865025763015041,5
1538157416.824934,81,0,72032.0237725,0.842620849609375,0.1207275390625,-0.8545989990234375,72032.02139550001,3.169921763369402,6.086135887595751,-0.412759608925855,5
1538157416.826491,82,0,72032.03357150001,0.9145355224609375,-0.1278228759765625,-0.670501708984375,72032.04140650001,4.076133696986077,8.241125361639302,-2.05621602500582,5
1538157416.827196,83,0,72032.0433815,1.05303955078125,-0.2655181884765625,-0.6057891845703125,,,,,5
1538157416.827907,84,0,72032.05318650001,1.105361938476562,-0.325103759765625,-0.5078277587890625,72032.05140950001,4.503216851518814,9.071796198303661,-2.287152038932041,5
1538157416.828593,85,0,72032.06298050001,1.14697265625,-0.30181884765625,-0.487335205078125,72032.0614165,4.903476647552274,9.482426876254106,-2.260561174395927,5
1538157416.82923,86,0,72032.07279650001,1.3216552734375,-0.18267822265625,-0.416778564453125,72032.07142050001,5.362136370497862,9.29695048950332,-2.205454778803898,5
1538157416.837459,87,0,72032.08259950001,1.396530151367188,-0.1678466796875,-0.30548095703125,72032.08139750001,5.639902474296473,9.109368074962498,-2.160710743013368,5
1538157416.838875,88,0,72032.09240550001,1.255386352539062,-0.23382568359375,-0.370574951171875,,,,,5
1538157416.846021,89,0,72032.1022125,1.015121459960938,-0.2163848876953125,-0.2973480224609375,72032.1014135,4.361714580687416,8.785439802092892,-1.310480852355139,5
1538157416.911883,90,0,72032.11201350001,0.4945831298828125,-0.190399169921875,-0.16351318359375,72032.1114185,2.839594447032552,7.765065076763354,-0.7633117695290942,5
1538157416.912783,91,0,72032.12182650001,0.4057159423828125,-0.0250244140625,-0.1366729736328125,,,,,5
1538157416.913575,92,0,72032.1316315,0.33111572265625,0.0503387451171875,-0.2782440185546875,72032.13142650001,-0.8386363514847863,3.390765728344768,-1.803807475842508,5
1538157416.914701,93,0,72032.14143250001,0.38482666015625,-0.0521087646484375,-0.3655853271484375,72032.1414465,-1.919091458374294,2.361140779284949,-2.770337344988387,5
1538157416.915602,94,0,72032.15124050001,0.6188507080078125,-0.2944183349609375,-0.49462890625,,,,,5
1538157416.916505,95,0,72032.1610465,0.7346343994140625,-0.614959716796875,-0.4109954833984375,72032.16145650001,-2.427871873035174,1.394546195324581,-3.649438831340273,5
1538157416.924507,96,0,72032.17085150001,0.6621551513671875,-0.8434295654296875,-0.2943267822265625,72032.1714505,-1.547536810466362,1.990864981332474,-3.469089562320107,5
1538157416.926136,97,0,72032.18065750001,0.5179443359375,-0.8841552734375,-0.17425537109375,,,,,5
1538157416.991627,98,0,72032.19044250001,0.4349212646484375,-0.7650299072265625,-0.144439697265625,72032.1914545,2.503655317646686,3.233014712754469,-3.116180504152148,5
1538157416.993069,99,0,72032.20023850001,0.3537750244140625,-0.641326904296875,-0.0974884033203125,72032.20147650001,4.657784590658141,3.006252671204729,-2.814306933533922,5
1538157416.994054,100,0,72032.2100755,0.2602996826171875,-0.532958984375,0.0399627685546875,,,,,5
1538157416.995029,101,0,72032.21988050001,0.21368408203125,-0.3998565673828125,0.306732177734375,72032.2214985,6.284970690374376,3.595110345102657,-1.980569999506555,5
1538157416.995969,102,0,72032.22968050001,0.219696044921875,-0.2234954833984375,0.3916168212890625,72032.2314955,5.943346777325627,4.096122585179884,-1.739579753516957,5
1538157416.996656,103,0,72032.2394855,0.17022705078125,-0.038970947265625,0.306976318359375,,,,,5
1538157417.000376,104,0,72032.24928050001,0.1804351806640625,0.075531005859375,0.1849212646484375,72032.25151250001,4.989773186882983,3.056175490051028,-1.693599478348413,5
1538157417.066167,105,0,72032.25907650001,0.288787841796875,0.132537841796875,0.1237335205078125,72032.2615185,4.758632642185043,2.173982606305778,-1.881128895983541,5
1538157417.067031,106,0,72032.2688895,0.4783477783203125,0.15582275390625,0.121337890625,,,,,5
1538157417.068035,107,0,72032.2787005,0.7985687255859375,0.251312255859375,0.22320556640625,72032.2715245,4.889858307002044,1.10700336084818,-2.062490432534046,5
1538157417.068894,108,0,72032.2884915,1.013717651367188,0.2299041748046875,0.3644866943359375,72032.28152850001,5.415302653235768,0.111686318215198,-2.27337843609026,5
1538157417.069972,109,0,72032.2983235,1.26611328125,-0.03857421875,0.5362091064453125,72032.29153050001,6.075817736268348,-0.4371086244563405,-2.375425975372134,5
1538157417.071743,110,0,72032.3081185,1.532302856445312,-0.2108001708984375,0.7803802490234375,72032.3015405,6.382213354417529,-0.6107336780401654,-2.067321939383668,5
1538157417.072607,111,0,72032.31791750001,1.690460205078125,-0.0933074951171875,0.8932647705078125,72032.3115445,6.156670774330936,-0.3324943305158479,-1.44842300944132,5
1538157417.073373,112,0,72032.32771350001,1.78265380859375,-0.136871337890625,0.9432830810546875,72032.32152550001,5.502385890352487,0.1049599722499849,-0.9736261281865047,5
1538157417.08106,113,0,72032.3375445,2.020217895507812,-0.27813720703125,1.067626953125,72032.33155650001,4.65296107329179,0.2296161512899779,-0.8511516107115047,5
1538157417.165172,114,0,72032.34734050001,2.416900634765625,-0.1924591064453125,1.09149169921875,72032.3415605,4.044795747806897,0.1907454509675083,-1.09043237359738,5
1538157417.166942,115,0,72032.3571485,2.677078247070312,-0.0906982421875,1.020904541015625,72032.3515515,4.017902081854841,-0.1981200103420468,-1.515041717793543,5
1538157417.226738,116,0,72032.36694550001,2.693572998046875,-0.0897979736328125,0.9972686767578125,72032.36157150001,4.356810103223926,-1.097212515416613,-1.897974455142728,5
1538157417.227954,117,0,72032.37676350001,2.578353881835938,-0.080352783203125,1.012802124023438,72032.3715755,4.633604685856875,-2.021335805260725,-1.992613346588111,5
1538157417.228763,118,0,72032.38657050001,2.451980590820312,0.0357818603515625,1.050262451171875,72032.3815605,4.62312621223185,-2.349467345278805,-1.780358875076578,5
1538157417.231566,119,0,72032.3963775,2.301544189453125,0.1352081298828125,1.112274169921875,72032.39155650001,4.380421689448569,-2.0433843822416,-1.497468316708437,5
1538157417.232858,120,0,72032.40618450001,2.035568237304688,0.24920654296875,1.06231689453125,72032.4015605,4.053957554588987,-1.555585948545018,-1.18909876355929,5
1538157417.233693,121,0,72032.4159835,1.792373657226562,0.3834228515625,0.9897613525390625,72032.41158650001,3.752870149124553,-1.557286376901034,-1.039810208648827,5
1538157417.234819,122,0,72032.42579350001,1.620834350585938,0.4895172119140625,0.9090576171875,72032.4216015,3.525684931277599,-1.863523803281463,-1.129339026594566,5
1538157417.23608,123,0,72032.4356195,1.493698120117188,0.4066162109375,0.73602294921875,72032.43160550001,3.306408236603745,-2.073038680979632,-1.442196538812714,5
1538157417.236801,124,0,72032.4454255,1.402267456054688,0.218353271484375,0.5832061767578125,72032.4416075,2.781350048728083,-2.213704719228745,-1.668140723591691,5
1538157417.238181,125,0,72032.4552125,1.454559326171875,0.105712890625,0.36102294921875,72032.4516175,2.113106472212092,-2.011173715173201,-1.48579275217342,5
1538157417.240445,126,0,72032.4650385,1.555953979492188,-0.044281005859375,0.2481842041015625,72032.4616215,1.616644242857265,-1.833548327315967,-0.9850518882112717,5
1538157417.241424,127,0,72032.4748445,1.493133544921875,-0.110565185546875,0.1663970947265625,72032.4716095,1.407797552276597,-1.545974067538704,-0.5109559509553657,5
1538157417.242533,128,0,72032.4846275,1.542068481445312,-0.2745208740234375,0.058624267578125,72032.4816325,0.7858604881626861,-1.725057003460537,-0.6470397542328886,5
1538157417.244177,129,0,72032.49442850001,1.3916015625,-0.43780517578125,0.2525787353515625,72032.49163650001,-0.8655401374489848,-2.908764197392962,-0.4643604855750123,5
1538157417.248101,130,0,72032.5042635,1.242919921875,-0.2438812255859375,0.5108642578125,72032.5016435,-3.323059385003357,-4.237339098826317,0.08512315055442071,5
1538157417.302832,131,0,72032.51406450001,1.09228515625,-0.1141510009765625,0.39794921875,72032.5116485,-5.421002350600755,-4.70661737767027,0.5178346297349313,5
1538157417.304432,132,0,72032.52387650001,0.7887420654296875,-0.21929931640625,0.3891754150390625,72032.5216525,-5.0683151337516,-4.88878292255387,0.7018172494302924,5
1538157417.305259,133,0,72032.5336825,0.5157623291015625,-0.1700286865234375,0.682586669921875,72032.53165050001,-4.372458837789232,-4.902569574884993,0.7495421614289485,5
1538157417.307154,134,0,72032.5434845,0.2945709228515625,-0.093902587890625,0.82659912109375,72032.55165350001,-4.37537979287283,-3.115876903787879,0.8532967869695635,5
1538157417.309325,135,0,72032.55329550001,0.1490020751953125,-0.2054595947265625,0.85382080078125,,,,,5
1538157417.310134,136,0,72032.56310150001,0.1143798828125,-0.3539581298828125,0.670867919921875,72032.5616725,-4.46249498792263,-2.103588867108367,1.093056652535544,5
1538157417.317129,137,0,72032.57290850001,0.2013397216796875,-0.299285888671875,0.490264892578125,,,,,5
1538157417.3265,138,0,72032.58271450001,0.24420166015625,0.021728515625,0.386474609375,72032.5816795,-3.028989941643499,-1.357781256476037,2.146312895212072,5
1538157417.398107,139,0,72032.59251250001,0.235382080078125,0.2975921630859375,0.139495849609375,72032.5916895,-2.016868352532117,-0.5538954287912583,2.653554002762887,5
1538157417.39896,140,0,72032.60232450001,0.20892333984375,0.462860107421875,-0.0371856689453125,,,,,5
1538157417.399781,141,0,72032.6121305,0.23358154296875,0.3751220703125,-0.1514739990234375,72032.61168050001,-0.3853231907436407,0.4897041917726424,2.464265034595543,5
1538157417.400612,142,0,72032.62193150001,0.2275390625,0.231536865234375,-0.1531829833984375,72032.62170450001,0.02788329661312963,0.9874047910343567,2.37739485036603,5
1538157417.401202,143,0,72032.63174350001,0.24481201171875,0.0789031982421875,-0.171630859375,,,,,5
1538157417.401979,144,0,72032.6415485,0.3873748779296875,0.001861572265625,-0.1190032958984375,72032.64171150001,-0.2359139946357973,0.7128286215894432,2.144479841433771,5
1538157417.402673,145,0,72032.6513505,0.4759979248046875,0.0723419189453125,-0.092559814453125,72032.6517205,-0.8000929536602875,0.5136018014983594,1.650075702969356,5
1538157417.405279,146,0,72032.6611635,0.592193603515625,0.2006378173828125,-0.022857666015625,,,,,5
1538157417.468661,147,0,72032.6709695,0.7195587158203125,0.36712646484375,0.0670318603515625,72032.67170950001,-1.893166650426808,0.1444626406991303,0.1329354142368313,5
1538157417.469607,148,0,72032.6807695,0.892242431640625,0.5921173095703125,0.315826416015625,72032.6817345,-1.85566721174962,0.1622608125802388,-0.7415654613319431,5
1538157417.48194,149,0,72032.6905805,1.044357299804688,0.8500518798828125,0.6512603759765625,,,,,5
1538157417.483977,150,0,72032.7003865,1.390029907226562,0.7519073486328125,0.2952117919921875,72032.7017455,-0.6120854986094897,1.971533361295698,-0.5197204141028164,5
1538157417.484829,151,0,72032.7101885,1.7216796875,0.5858917236328125,-0.0201568603515625,72032.7117515,0.5236925188686696,3.317724274391601,-0.11437291512287,5
1538157417.485415,152,0,72032.71999550001,2.057540893554688,0.7463836669921875,-0.21588134765625,,,,,5
1538157417.486253,153,0,72032.72980450001,1.928573608398438,0.8490142822265625,-0.0751800537109375,72032.73173850001,1.858873657702076,1.659198361283423,-0.7605428809437388,5
1538157417.486813,154,0,72032.7395865,1.700637817382812,0.6509857177734375,0.002410888671875,,,,,5
1538157417.563868,155,0,72032.74942050001,1.812088012695312,0.679168701171875,0.1722412109375,72032.7417655,1.502488375363236,1.254087351008276,-1.487805303009193,5
1538157417.630833,156,0,72032.7592285,1.6502685546875,0.939178466796875,0.39410400390625,72032.76177550001,0.1468493656680593,0.3658530863301804,-2.442235898690625,5
1538157417.63335,157,0,72032.76902750001,1.476470947265625,1.084701538085938,0.4318389892578125,,,,,5
1538157417.64108,158,0,72032.7788385,1.465805053710938,1.0238037109375,0.2627410888671875,72032.77178150001,-0.3754141009596739,1.007814991312615,-2.597314698443138,5
1538157417.65305,159,0,72032.78864550001,1.4840087890625,0.8600311279296875,0.1229705810546875,,,,,5
1538157417.736259,160,0,72032.7984405,1.637741088867188,0.5916900634765625,0.1636810302734375,72032.80179550001,0.1963079955363568,0.9375442901575661,-1.979345744353445,5
1538157417.838632,161,0,72032.8082595,1.7071533203125,0.566436767578125,0.340850830078125,,,,,5
1538157417.839694,162,0,72032.8180655,1.567840576171875,0.593048095703125,0.4094085693359375,,,,,5
1538157417.907369,163,0,72032.82787150001,1.1319580078125,0.52276611328125,0.369873046875,72032.82180650001,-1.034851669015208,0.2715372363250242,1.132733491719981,5
1538157417.908413,164,0,72032.83767750001,0.7952117919921875,0.3436126708984375,0.3320465087890625,,,,,5
1538157418.015424,165,0,72032.8474555,0.6917877197265625,0.132965087890625,0.28692626953125,72032.83179750001,-1.798014567839367,0.2762129482508763,1.616057015836902,5
1538157418.016679,166,0,72032.85721887501,0.685882568359375,0.0307159423828125,0.31085205078125,72032.851753875,-1.853663449345445,0.2183336693318572,0.453492391482508,5
1538157418.114729,167,0,72032.867024875,0.52398681640625,-0.0850830078125,0.3551177978515625,72032.86173787501,-1.421883543914244,0.03345249908470332,-0.1533386902962554,5
1538157418.115851,168,0,72032.876824875,0.384674072265625,-0.098419189453125,0.390869140625,72032.871764875,-0.9815282597729879,-0.4624243674625247,-0.2857428038956158,5
1538157418.128368,169,0,72032.88662087501,0.2818450927734375,-0.014862060546875,0.3365020751953125,72032.881768875,-0.8064424623312544,-0.6444471669116966,-0.4615801453969696,5
1538157418.185041,170,0,72032.89642587501,0.1059417724609375,-0.05181884765625,0.2809906005859375,72032.89176687501,-0.8082305086871336,-0.5042000439020526,-0.6832041502556196,5
1538157418.200377,171,0,72032.90623187501,-0.0101776123046875,-0.103729248046875,0.1563720703125,72032.90178087501,-0.8009020219994536,-0.2169887729813672,-0.7215118583236465,5
1538157418.266785,172,0,72032.916036875,-0.0430908203125,-0.1298828125,0.051483154296875,72032.911784875,-0.7785826015357175,-0.1568945429837292,-0.6428894839901091,5
1538157418.268301,173,0,72032.925842875,-0.0627593994140625,-0.1502685546875,-0.057952880859375,72032.921765875,-0.7490412208279046,-0.1874455280607912,-0.6157204471813388,5
1538157418.283001,174,0,72032.93564887501,-0.2360382080078125,-0.156158447265625,-0.1619720458984375,72032.93179487501,-0.8803579657541857,-0.5608247076315355,-0.6110663068603164,5
1538157418.284215,175,0,72032.94545687501,-0.5182037353515625,-0.0682373046875,-0.26422119140625,72032.94179887501,-1.177132648149346,-1.119553507485179,-0.4575505163515707,5
1538157418.286646,176,0,72032.95526287501,-0.6884307861328125,0.034027099609375,-0.2924041748046875,72032.95179587501,-1.736872117636674,-1.324919979153331,-0.1975096138202006,5
1538157418.442245,177,0,72032.965063875,-0.58612060546875,0.11871337890625,-0.2143707275390625,72032.96181187501,-2.238494487919639,-0.5291967402096455,-0.2405915707744124,5
1538157418.443611,178,0,72032.97488987501,-0.3840179443359375,0.1967010498046875,-0.1046142578125,72032.971815875,-2.136878913366576,0.4026816747287771,-0.6897837560447695,5
1538157418.444783,179,0,72032.984697875,-0.28173828125,0.2307891845703125,0.0321197509765625,72032.981789875,-1.610064104435897,1.009446976428616,-1.280276078219788,5
1538157418.516328,180,0,72032.994497875,-0.2135467529296875,0.2375335693359375,0.186737060546875,72033.001830875,-0.3547863204203561,1.898061806826483,-2.352337433985583,5
1538157418.517861,181,0,72033.00431087501,-0.01190185546875,0.268768310546875,0.37115478515625,,,,,5
1538157418.535076,182,0,72033.014115875,1.115020751953125,0.145782470703125,0.2479248046875,72033.011836875,0.5178479455403817,2.819167202523317,-2.889437104730039,5
1538157418.551995,183,0,72033.023918875,2.479354858398438,0.5494384765625,0.2181396484375,72033.021841875,1.189421006051189,3.378444347245408,-2.954942611746609,5
1538157418.651124,184,0,72033.03372587501,2.225799560546875,1.331008911132812,-0.7442626953125,72033.03184587501,1.354967360468259,1.999976454369962,-3.444730693093589,5
1538157418.658981,185,0,72033.043532875,1.851547241210938,1.686294555664062,-0.66058349609375,72033.04182287501,1.610125889773187,-1.420453426408871,-3.859665039365602,5
1538157418.665204,186,0,72033.053338875,1.453628540039062,1.801345825195312,-0.1372833251953125,,,,,5
1538157418.761153,187,0,72033.06314487501,1.163177490234375,1.687850952148438,0.300537109375,72033.061830875,1.0629437574578,-3.172413683201389,-2.212358224981601,5
1538157418.94915,188,0,72033.07295087501,1.103591918945312,1.377395629882812,0.45098876953125,72033.07186687501,1.117142281434221,-1.384856816330545,-2.248666698019306,5
1538157418.951772,189,0,72033.082755875,1.107406616210938,1.1005859375,0.54229736328125,,,,,5
1538157419.030923,190,0,72033.092559875,1.153228759765625,0.950286865234375,0.43914794921875,72033.09186887501,3.267226745382063,1.94205776066681,-5.207225616210133,5
1538157419.036519,191,0,72033.10236087501,1.327163696289062,0.91851806640625,0.059722900390625,72033.10188287501,4.139056204061379,1.707222346272495,-6.764897885153119,5
1538157419.03721,192,0,72033.112172875,1.15484619140625,0.83990478515625,-0.0615386962890625,,,,,5
1538157419.038273,193,0,72033.12197787501,0.8593597412109375,0.6798095703125,0.2972259521484375,72033.12186687501,4.351664875997893,-0.4377919915920548,-7.910104025522377,5
1538157419.051602,194,0,72033.131780875,0.9153900146484375,0.720977783203125,1.11224365234375,,,,,5
1538157419.155837,195,0,72033.141589875,0.7576141357421875,0.6208343505859375,0.797332763671875,72033.13189787501,4.681588989745705,-1.038086344475219,-8.220789996187674,5
1538157419.219725,196,0,72033.151389875,0.5406494140625,0.4703216552734375,0.2972564697265625,72033.151896875,4.299607000905678,-1.682258140530201,-8.136761404841277,5
1538157419.224407,197,0,72033.161199875,0.3747100830078125,0.39501953125,-0.00341796875,72033.161912875,4.737142530084759,-1.85893704093602,-7.926379135576069,5
1538157419.251314,198,0,72033.17100687501,0.2723388671875,0.3283233642578125,-0.1653594970703125,,,,,5
1538157419.322012,199,0,72033.180812875,0.2595367431640625,0.4000091552734375,-0.255584716796875,72033.181894875,6.436232381336478,-1.660212759342634,-7.412878534199133,5
1538157419.328358,200,0,72033.19058787501,0.1605987548828125,0.8383331298828125,-0.8066864013671875,72033.191929875,5.521214439259347,-1.95008692503729,-7.254933906797585,5
1538157419.382589,201,0,72033.200424875,0.013671875,0.88958740234375,-0.7828216552734375,,,,,5
1538157419.393923,202,0,72033.21022187501,-0.1410064697265625,0.8403472900390625,-0.497528076171875,72033.21192487501,4.006870203355296,-1.654032894033105,-6.869932958545844,5
1538157419.395,203,0,72033.220014875,-0.27874755859375,0.7727203369140625,-0.3067779541015625,,,,,5
1538157419.39644,204,0,72033.229845875,-0.4024200439453125,0.99444580078125,-0.4296417236328125,72033.22194487501,3.658464284274552,0.3442644372695621,-6.252424731324735,5
1538157419.397569,205,0,72033.23965287501,-0.5380859375,1.786666870117188,-0.5966033935546875,72033.24195387501,1.283971214232273,2.666920141957885,-4.352920822767975,5
1538157419.398154,206,0,72033.249453875,-0.814910888671875,2.439056396484375,-0.5048370361328125,,,,,5
1538157419.398735,207,0,72033.25926787501,-0.9828033447265625,2.8787841796875,-0.2176666259765625,72033.25195987501,-0.9828252192238565,1.804686052686125,-3.123082618749307,5
1538157419.399917,208,0,72033.269074875,-0.87823486328125,2.061386108398438,0.35247802734375,72033.27196887501,-3.691858193815273,-2.010838955824177,-0.2614116315444339,5
1538157419.40061,209,0,72033.27886987501,-0.3431396484375,0.7429962158203125,0.8065032958984375,,,,,5
1538157419.401106,210,0,72033.28868487501,0.2712554931640625,0.1027069091796875,0.957489013671875,,,,,5
1538157419.403218,211,0,72033.298489875,0.5472869873046875,-0.0612945556640625,0.5996246337890625,72033.281974875,-2.965411231675601,-3.086554967553889,1.268147776299458,5
1538157419.405472,212,0,72033.308295875,0.5428009033203125,-0.14312744140625,0.310516357421875,72033.31196387501,-0.2741415415550126,-1.229247248572779,4.1692157044582,5
1538157419.406224,213,0,72033.31810287501,0.416748046875,-0.0582427978515625,0.14874267578125,,,,,5
1538157419.45693,214,0,72033.32788687501,0.2654571533203125,0.1083984375,0.0976409912109375,72033.321995875,-0.6545618527318174,-0.5495768467675858,4.33175268684348,5
1538157419.464981,215,0,72033.33771187501,0.1631927490234375,0.15826416015625,0.0978546142578125,72033.33199987501,-1.291442446354381,-0.1212111138538664,4.010889446072444,5
1538157419.468141,216,0,72033.347516875,0.111572265625,0.1190338134765625,0.0897216796875,72033.34199287501,-2.090911155055154,0.029307555164104,3.453911408319419,5
1538157419.47053,217,0,72033.357291875,0.0709381103515625,0.107666015625,0.0178375244140625,72033.36200987501,-3.296017647294692,0.3954914061016722,2.171962598618952,5
1538157419.482266,218,0,72033.367126875,0.04095458984375,0.198760986328125,-0.0577545166015625,,,,,5
1538157419.483148,219,0,72033.376933875,0.0240325927734375,0.4045867919921875,-0.113800048828125,72033.37201187501,-3.446321665528802,0.5928436271014491,1.554163021574589,5
1538157419.484473,220,0,72033.386720875,0.061737060546875,0.4313507080078125,-0.14532470703125,72033.38199787501,-3.1529781998821,1.130549699626116,1.423144817006506,5
1538157419.485702,221,0,72033.39654487501,0.0897979736328125,0.5047760009765625,-0.1288604736328125,72033.39200187501,-2.906685333846046,2.44029099214654,1.604422463982673,5
1538157419.48648,222,0,72033.40634687501,0.1534271240234375,0.653900146484375,-0.182861328125,72033.40202187501,-3.033122635023084,4.178743429574067,1.886272258996811,5
1538157419.487206,223,0,72033.416143875,0.2458953857421875,1.1380615234375,-0.3176422119140625,72033.41201887501,-3.866791125810436,5.133999871509532,2.22748524628936,5
1538157419.547604,224,0,72033.42596187501,0.2230072021484375,2.379226684570312,-0.9152679443359375,72033.42202287501,-5.65837202908839,3.836110711104396,2.569405569167435,5
1538157419.554315,225,0,72033.43576787501,0.115875244140625,4.623062133789062,-0.30535888671875,72033.43205087501,-6.938959963471826,-1.32106798295264,2.804903578040962,5
1538157419.632259,226,0,72033.445562875,-0.104766845703125,6.641098022460938,0.7340087890625,72033.44204187501,-4.752236261878892,-6.25468628772243,2.994357129563673,5
1538157419.633779,227,0,72033.455358875,0.1694793701171875,6.752761840820312,1.199996948242188,72033.452045875,-1.500090465117729,-7.444459896301947,2.935410988311967,5
1538157419.64395,228,0,72033.46518687501,0.375946044921875,4.571258544921875,1.323089599609375,72033.462049875,-0.9549744131760258,-5.825118403892649,3.352896110276059,5
1538157419.647898,229,0,72033.474970875,0.1388092041015625,2.875839233398438,0.8488922119140625,72033.472054875,-1.353172389893545,-3.150688147660741,3.750656795942588,5
1538157419.702421,230,0,72033.484777875,-0.0349273681640625,1.899124145507812,0.44439697265625,72033.482058875,-1.674822062134482,-2.021017024878242,3.565204377641612,5
1538157419.703596,231,0,72033.494604875,-0.060760498046875,1.296096801757812,0.3227386474609375,,,,,5
1538157419.704394,232,0,72033.504402875,0.081298828125,0.86578369140625,0.3078155517578125,72033.492082875,-1.44662963676326,-2.080187404293732,3.123686623684536,5
1538157419.705391,233,0,72033.514202875,0.255340576171875,0.6334228515625,0.2082977294921875,72033.512064875,-0.2377515757879519,-0.7162262825081662,2.532369254203812,5
1538157419.706271,234,0,72033.524001875,0.340606689453125,0.5439453125,-0.0079193115234375,72033.522088875,-0.007012103150178634,0.3093655753968367,2.130677742768326,5
1538157419.707084,235,0,72033.533818875,0.324859619140625,0.621063232421875,-0.2379913330078125,72033.53208987501,0.04408863184626179,0.9585947143618795,1.510483983903981,5
1538157419.707823,236,0,72033.543604875,0.2981109619140625,0.674530029296875,-0.3470306396484375,72033.542093875,0.02127599394864304,1.372531706805659,0.7943415909701524,5
1538157419.70844,237,0,72033.55342887501,0.2627410888671875,0.6036834716796875,-0.365234375,,,,,5
1538157419.710295,238,0,72033.56320787501,0.22674560546875,0.4625396728515625,-0.354644775390625,72033.552113875,0.07286035899904185,1.61488442600894,0.118607341256096,5
1538157419.71311,239,0,72033.573025875,0.1544342041015625,0.29217529296875,-0.38397216796875,72033.57209287501,0.3865258742919205,1.664364361165959,-0.875829526636615,5
1538157419.714383,240,0,72033.582824875,0.031494140625,0.11419677734375,-0.3552703857421875,,,,,5
1538157419.715139,241,0,72033.59263487501,-0.074432373046875,-0.110931396484375,-0.2352447509765625,72033.58212987501,0.5641310221248689,1.168021974060185,-1.200577520489749,5
1538157419.716084,242,0,72033.602439875,-0.1890411376953125,-0.3711395263671875,-0.21905517578125,72033.60214087501,1.245859781136585,-0.2694581064619993,-1.487518746875901,5
1538157419.716648,243,0,72033.61224487501,-0.2692718505859375,-0.60595703125,-0.28900146484375,,,,,5
1538157419.717232,244,0,72033.622049875,-0.377288818359375,-0.8241729736328125,-0.28497314453125,72033.61214487501,1.634784630938448,-1.206899598601488,-1.520176292375216,5
1538157419.718033,245,0,72033.631841875,-0.501556396484375,-0.8938446044921875,-0.212890625,72033.632129875,1.98214978666519,-2.249848076278865,-2.215190496800901,5
1538157419.718549,246,0,72033.641664875,-0.5469970703125,-0.8916473388671875,-0.164459228515625,,,,,5
1538157419.719567,247,0,72033.65148487501,-0.5379486083984375,-0.838531494140625,-0.0666351318359375,72033.642159875,1.683460291446263,-2.051835657644857,-2.888855204031856,5
1538157419.720458,248,0,72033.661291875,-0.4637451171875,-0.7448883056640625,0.188232421875,72033.662139875,0.7904144936267216,0.04720426400554549,-3.528549693662197,5
1538157419.720966,249,0,72033.67108687501,-0.32574462890625,-0.6339569091796875,0.5788116455078125,,,,,5
1538157419.722433,250,0,72033.680902875,-0.10943603515625,-0.4845123291015625,0.7574310302734375,72033.672174875,-0.2924305340250228,2.634369655534392,-3.206407869251815,5
1538157419.72532,251,0,72033.69071387501,0.176666259765625,-0.2499847412109375,0.2685546875,72033.692160875,-3.104791495750424,7.268339727092826,-1.423576249103098,5
1538157419.726262,252,0,72033.700506875,0.42767333984375,0.142547607421875,-0.5095367431640625,,,,,5
1538157419.726978,253,0,72033.71033087501,0.6305084228515625,0.936248779296875,0.0047607421875,72033.702190875,-3.454347367789865,4.357778428596279,0.3687063971220913,5
1538157419.727832,254,0,72033.720137875,0.5341033935546875,1.302383422851562,0.8734283447265625,72033.722178875,-0.4533579018474589,-7.250271776993293,4.099653670469221,5
1538157419.775125,255,0,72033.729920875,0.31854248046875,0.7995758056640625,0.163604736328125,72033.73220687501,2.348962942568344,-6.902112999261708,3.817845687084197,5
1538157419.77595,256,0,72033.739750875,0.1197967529296875,0.597564697265625,-0.14227294921875,,,,,5
1538157419.776621,257,0,72033.74955787501,-0.0421142578125,0.88934326171875,-0.2869415283203125,72033.742212875,3.613550072490366,-6.325322374579038,3.246861818842336,5
1538157419.777448,258,0,72033.75936187501,-0.2763671875,2.321243286132812,-0.55291748046875,72033.752216875,4.44541400532308,-5.437369606028165,2.313237968125476,5
1538157419.778961,259,0,72033.76917087501,-0.53692626953125,3.404190063476562,-0.7565460205078125,72033.76222087501,4.807935210813462,-4.942235761425069,0.2302403962494924,5
1538157419.779867,260,0,72033.778977875,-0.9384307861328125,3.192626953125,-0.8780670166015625,72033.77220187501,4.365220365946397,-4.186279642826773,-2.051558955207598,5
1538157419.781445,261,0,72033.78878487501,-1.132858276367188,2.41650390625,-0.771240234375,72033.782205875,3.214892434168698,-2.818043348543303,-3.284001198140145,5
1538157419.782074,262,0,72033.798590875,-0.8139801025390625,2.089401245117188,-0.832366943359375,,,,,5
1538157419.783,263,0,72033.808373875,-0.3973846435546875,1.99749755859375,-0.686767578125,72033.81223587501,-1.291441913722163,1.753875069616285,-3.130126679832566,5
1538157419.783576,264,0,72033.81820787501,-0.0061187744140625,1.809555053710938,-0.4862518310546875,,,,,5
1538157419.784208,265,0,72033.82801487501,0.366607666015625,2.072509765625,-0.1168365478515625,72033.822230875,-1.59314877045615,3.223725074240055,-3.605606395590877,5
1538157419.784905,266,0,72033.837815875,0.964752197265625,2.743423461914062,0.7332305908203125,72033.832241875,-0.8012562224244342,4.21616377236688,-3.999165412005588,5
1538157419.785737,267,0,72033.84761187501,1.308135986328125,2.70758056640625,0.095184326171875,72033.842245875,1.650659201564193,2.372328452708263,-4.162623049179708,5
1538157419.786779,268,0,72033.857433875,1.428543090820312,2.4949951171875,-0.260406494140625,72033.852257875,2.965339326326169,1.796340771094252,-3.689864285107131,5
1538157419.795126,269,0,72033.867223875,1.611175537109375,2.37042236328125,-0.224761962890625,72033.87224887501,3.829249076555807,2.245314577155223,-2.765943661821974,5
1538157419.79628,270,0,72033.87704987501,1.8172607421875,2.16455078125,-0.13641357421875,,,,,5
1538157419.797245,271,0,72033.88685787501,1.793060302734375,1.809677124023438,0.0890655517578125,72033.88227687501,3.777378688004334,1.426871644635962,-2.567479038434871,5
1538157419.798461,272,0,72033.896642875,1.2142333984375,1.366058349609375,0.51275634765625,72033.902293875,3.060315640281665,0.9868220913878474,-2.460716372443012,5
1538157419.799479,273,0,72033.906471875,0.5236053466796875,1.075088500976562,0.63055419921875,,,,,5
1538157419.800521,274,0,72033.916279875,0.05462646484375,1.011032104492188,0.461761474609375,72033.91227487501,2.531558321651882,1.188019917001699,-1.935977763898159,5
1538157419.801493,275,0,72033.926058875,-0.2899017333984375,0.998046875,0.1938323974609375,72033.93230887501,1.532351465930731,-0.2416792057636008,-1.324969780265715,5
1538157419.802087,276,0,72033.935892875,-0.5492095947265625,0.94549560546875,0.1625823974609375,,,,,5
1538157419.802782,277,0,72033.945698875,-0.6455230712890625,0.863006591796875,0.3077545166015625,72033.94231487501,1.166994526511632,-0.734806624801431,-1.318619206330312,5
1538157419.8038,278,0,72033.955479875,-0.58416748046875,0.662811279296875,0.38531494140625,72033.952320875,0.6999506398222559,-0.6348099858750268,-1.199497874983831,5
1538157419.804631,279,0,72033.96531087501,-0.4454193115234375,0.443359375,0.4549560546875,72033.962324875,0.1937545566831889,-0.5091053203138697,-0.9339359731966178,5
1538157419.815512,280,0,72033.975117875,-0.2432861328125,0.248931884765625,0.3801422119140625,,,,,5
1538157419.880773,281,0,72033.98491887501,-0.01397705078125,0.0809173583984375,0.2509002685546875,72033.972329875,-0.3104659935592574,-0.5129844807576791,-0.8048264561817944,5
1538157419.882527,282,0,72033.994729875,0.21820068359375,-0.1154022216796875,0.21746826171875,72033.99233987501,-0.9392090321549746,-0.9305609491471604,-0.1848356301925135,5
1538157419.883542,283,0,72034.004536875,0.478240966796875,-0.3270111083984375,0.20068359375,,,,,5
1538157419.887391,284,0,72034.014315875,0.72308349609375,-0.416595458984375,0.1846160888671875,72034.00234587501,-1.069267699782302,-1.111643652731534,0.4544735000280932,5
1538157419.964058,285,0,72034.02414987501,0.853485107421875,-0.40325927734375,0.1422882080078125,72034.02234387501,-1.481512253353336,-0.933671787616482,1.971468912797318,5
1538157419.965565,286,0,72034.033957875,0.8043365478515625,-0.375,0.0529022216796875,,,,,5
1538157419.966805,287,0,72034.04376487501,0.6483612060546875,-0.3146514892578125,0.075439453125,72034.032360875,-1.716607059637825,-0.56507564536352,2.48730617171469,5
1538157420.031503,288,0,72034.05357287501,0.510711669921875,-0.2679595947265625,0.2802581787109375,72034.052346875,-2.321651692957363,-0.2679158698747344,2.453300800387686,5
1538157420.034626,289,0,72034.06336087501,0.4205169677734375,-0.233856201171875,0.458099365234375,,,,,5
1538157420.035647,290,0,72034.07318987501,0.304473876953125,-0.0687713623046875,0.3220367431640625,72034.062375875,-2.755191415236888,0.1518880664504892,2.137782790240548,5
1538157420.039813,291,0,72034.08298387501,0.210723876953125,0.1963958740234375,0.3409423828125,72034.08237787501,-3.517836062912918,0.9872572519099663,1.757169399884713,5
1538157420.040551,292,0,72034.09277987501,0.2026824951171875,0.4229888916015625,0.3542327880859375,,,,,5
1538157420.041265,293,0,72034.102605875,0.10015869140625,0.56298828125,-0.1721038818359375,72034.092391875,-3.294995526068319,1.356068044946789,1.842987369167535,5
1538157420.043083,294,0,72034.112401875,0.212249755859375,0.941162109375,-0.1700439453125,72034.112375875,-3.124806216606806,3.224680616439175,2.225989348705063,5
1538157420.04379,295,0,72034.122198875,0.326416015625,1.580581665039062,-0.0888519287109375,,,,,5
1538157420.047095,296,0,72034.132024875,0.40533447265625,2.54583740234375,-0.10028076171875,72034.122406875,-3.777494269195643,4.065005944687289,2.419689310585905,5
1538157420.10323,297,0,72034.14183787501,0.28594970703125,4.366668701171875,-0.4272613525390625,72034.142405875,-5.13249198970033,2.157019335426409,3.035969021596161,5
1538157420.104043,298,0,72034.151617875,-0.1383209228515625,6.166748046875,-0.749267578125,,,,,5
1538157420.104674,299,0,72034.16142987501,-0.481109619140625,6.176010131835938,-0.4420928955078125,72034.15242087501,-4.133647856519646,-1.718979669852976,2.750346858897925,5
1538157420.105728,300,0,72034.17125687501,-0.1190643310546875,4.25726318359375,0.548614501953125,72034.172415875,-1.32569336113389,-6.23062302937691,2.579674452014671,5
1538157420.106549,301,0,72034.18103587501,0.3291015625,2.746063232421875,0.9445648193359375,,,,,5
1538157420.107228,302,0,72034.19086087501,0.4456024169921875,2.170166015625,0.57470703125,72034.182437875,-1.554644787415784,-3.369739805222483,3.804575421688441,5
1538157420.108399,303,0,72034.20065887501,0.3033905029296875,1.726699829101562,0.2463531494140625,72034.20244787501,-2.005175477450015,-1.930162751657971,3.740134646475685,5
1538157420.10965,304,0,72034.21045487501,0.218353271484375,1.306900024414062,0.3557891845703125,,,,,5
1538157420.1117,305,0,72034.22028187501,0.2588653564453125,0.9735870361328125,0.46417236328125,72034.21244487501,-1.442416515918755,-2.475040716998221,3.108581972929934,5
1538157420.113045,306,0,72034.23007587501,0.309722900390625,0.8087158203125,0.3274383544921875,72034.23246287501,0.03280481830759606,-0.7218546071559396,2.270948301595562,5
1538157420.113637,307,0,72034.239897875,0.3165130615234375,0.7949676513671875,0.087158203125,,,,,5
1538157420.114256,308,0,72034.249684875,0.3070220947265625,0.85198974609375,-0.119781494140625,72034.242439875,0.235638091146865,0.1353295960568125,1.659272130845618,5
1538157420.115084,309,0,72034.259493875,0.3131866455078125,0.826385498046875,-0.190155029296875,72034.26247887501,0.06441547518240058,1.240829868785752,0.1756687634043518,5
1538157420.115673,310,0,72034.26930487501,0.2961273193359375,0.7161407470703125,-0.2118682861328125,,,,,5
1538157420.116112,311,0,72034.279101875,0.245513916015625,0.578399658203125,-0.2317962646484375,,,,,5
1538157420.116817,312,0,72034.28891487501,0.120391845703125,0.4235382080078125,-0.273162841796875,72034.27246987501,-0.08031294899351958,1.909171183313748,-0.4562652748094985,5
1538157420.118193,313,0,72034.298726875,-0.0164947509765625,0.206024169921875,-0.2574615478515625,72034.29249387501,0.09891140078219696,2.427022590963547,-1.166854976870512,5
1538157420.119631,314,0,72034.308534875,-0.1051788330078125,-0.027557373046875,-0.219268798828125,72034.302485875,0.4958726054894839,1.953550099718829,-1.409615692352794,5
1538157420.121014,315,0,72034.318324875,-0.2113037109375,-0.2728118896484375,-0.2590484619140625,72034.322489875,1.347996269998867,-0.1522790184985128,-1.670612669715502,5
1538157420.121629,316,0,72034.328147875,-0.2903289794921875,-0.520355224609375,-0.369110107421875,,,,,5
1538157420.122667,317,0,72034.337951875,-0.3682708740234375,-0.7954864501953125,-0.455413818359375,72034.33250287501,1.78875795252247,-1.791339088250975,-1.728368644276051,5
1538157420.123986,318,0,72034.347753875,-0.49578857421875,-0.9693145751953125,-0.270233154296875,72034.35252487501,2.146667095637053,-3.80971638785673,-2.336039420746516,5
1538157420.124792,319,0,72034.35758187501,-0.559967041015625,-1.001296997070312,-0.0796966552734375,,,,,5
1538157420.125816,320,0,72034.367376875,-0.5812225341796875,-0.9687347412109375,0.094573974609375,72034.36251187501,1.823629916468185,-3.403381388744582,-2.971030235259559,5
1538157420.126778,321,0,72034.37719287501,-0.527618408203125,-0.897857666015625,0.426177978515625,72034.38254187501,0.3482024535734622,0.219939555469175,-3.704855485199296,5
1538157420.127436,322,0,72034.38700287501,-0.412261962890625,-0.806396484375,0.91241455078125,,,,,5
1538157420.171976,323,0,72034.396809875,-0.1580810546875,-0.6260223388671875,1.109222412109375,72034.39253887501,-1.26384677113898,4.381627835106266,-3.309397634927359,5
1538157420.173195,324,0,72034.406591875,0.222015380859375,-0.3874359130859375,0.475006103515625,72034.41255587501,-3.519348205779865,8.693255546224234,-0.6138519733605392,5
1538157420.173824,325,0,72034.41641987501,0.5546112060546875,0.1284637451171875,-0.5461883544921875,,,,,5
1538157420.175172,326,0,72034.42622987501,0.766143798828125,0.8347320556640625,-0.5041656494140625,72034.422558875,-3.061576380741708,3.977444137522684,1.555065300551908,5
1538157420.177879,327,0,72034.43601087501,0.8834228515625,1.244659423828125,-0.1626129150390625,72034.44257287501,0.629509496357442,-7.47542393766408,4.998917416801879,5
1538157420.178565,328,0,72034.44584287501,0.6007232666015625,0.7718048095703125,-0.3057708740234375,,,,,5
1538157420.17988,329,0,72034.455649875,0.3050537109375,0.6235809326171875,-0.1896209716796875,72034.45255887501,2.580596704700166,-7.700106316718577,4.675393411785745,5
1538157420.180738,330,0,72034.46542787501,0.1821136474609375,1.05078125,-0.2537994384765625,72034.462582875,3.668445279407951,-7.187232623462245,3.942191341541087,5
1538157420.1815,331,0,72034.475260875,0.101959228515625,2.555496215820312,-0.67864990234375,72034.47258687501,4.144278662959024,-6.43689763897678,2.293151075603553,5
1538157420.182026,332,0,72034.485066875,0.01849365234375,4.065078735351562,-0.904571533203125,,,,,5
1538157420.182789,333,0,72034.494858875,-0.4082794189453125,3.91497802734375,-0.0393218994140625,72034.492598875,3.240128016026071,-5.136790331699717,-2.953081328460752,5
1538157420.183729,334,0,72034.504676875,-0.6502685546875,2.599349975585938,-0.0912933349609375,72034.502602875,2.29371033943247,-1.072633402767944,-3.230903358642255,5
1538157420.184445,335,0,72034.51448487501,-0.41375732421875,1.93035888671875,-0.4167633056640625,72034.51258587501,0.9405177095146396,1.504666841134921,-2.234884839378145,5
1538157420.185136,336,0,72034.52427987501,-0.0112762451171875,1.514541625976562,-0.2230072021484375,72034.52261287501,-0.2068024481279231,2.774759257662355,-2.07079230460015,5
1538157420.185806,337,0,72034.534097875,0.223907470703125,1.590377807617188,-0.6027679443359375,72034.532616875,-0.7528298337946513,3.78788405955637,-2.85859530246194,5
1538157420.18631,338,0,72034.54387587501,0.487762451171875,1.611663818359375,-0.528900146484375,,,,,5
1538157420.186887,339,0,72034.55370787501,0.6959686279296875,1.925125122070312,-0.3089599609375,72034.54262387501,-0.8040663900066858,4.775119207229288,-3.782839233503433,5
1538157420.188226,340,0,72034.563514875,1.052291870117188,2.302078247070312,-0.1553497314453125,72034.56261387501,0.8212592253720193,1.651197426420498,-4.051704786622889,5
1538157420.189696,341,0,72034.57331987501,1.332000732421875,2.327224731445312,-0.2144012451171875,72034.57261487501,2.038796820947829,0.07969269877564013,-3.733352107811471,5
1538157420.190396,342,0,72034.58312587501,1.460067749023438,2.289581298828125,-0.20989990234375,,,,,5
1538157420.191186,343,0,72034.59293287501,1.550933837890625,2.23211669921875,-0.0417022705078125,72034.59263087501,3.707059517317446,1.490363801868432,-3.684224775182779,5
1538157420.191851,344,0,72034.60273687501,1.48388671875,1.92791748046875,0.14080810546875,72034.602653875,4.20094274147264,1.40801140411213,-3.482496714195893,5
1538157420.19235,345,0,72034.612545875,1.128189086914062,1.592208862304688,0.43096923828125,,,,,5
1538157420.193088,346,0,72034.622350875,0.540679931640625,1.322738647460938,0.6389923095703125,72034.622660875,3.125442712107334,1.19687812341952,-2.339096995994036,5
1538157420.193597,347,0,72034.63214687501,0.0988922119140625,1.135467529296875,0.5987548828125,,,,,5
1538157420.194178,348,0,72034.64196587501,-0.2201690673828125,1.110260009765625,0.3203125,72034.63266987501,2.398332622856233,1.625758911688061,-2.000297098965208,5
1538157420.195208,349,0,72034.65177187501,-0.4747467041015625,1.122116088867188,0.1458587646484375,72034.65267887501,1.717259534104894,-0.06014722690333059,-1.666453611041126,5
1538157420.19589,350,0,72034.66156387501,-0.6006317138671875,1.046371459960938,0.2020721435546875,,,,,5
1538157420.196517,351,0,72034.671360875,-0.548980712890625,0.861236572265625,0.266571044921875,72034.66268587501,1.474470322798949,-0.8002886960004083,-1.627158402840898,5
1538157420.197767,352,0,72034.68118887501,-0.4237823486328125,0.5779571533203125,0.40753173828125,72034.682666875,0.278826041912462,-1.225418421873572,-1.05980309158427,5
1538157420.198343,353,0,72034.69098487501,-0.234527587890625,0.3217315673828125,0.4531097412109375,,,,,5
1538157420.199301,354,0,72034.700800875,0.009918212890625,0.1115570068359375,0.368560791015625,72034.692701875,-0.5387090189911904,-1.458856741960032,-0.8725152226600114,5
1538157420.200209,355,0,72034.710606875,0.280242919921875,-0.09942626953125,0.272186279296875,72034.712710875,-1.223015185305885,-1.784404749404626,-0.1674819398973392,5
1538157420.200738,356,0,72034.72039287501,0.5602569580078125,-0.343841552734375,0.2456207275390625,,,,,5
1538157420.201736,357,0,72034.73021987501,0.820953369140625,-0.4648895263671875,0.293060302734375,72034.722717875,-1.203227365774378,-1.937388706643683,0.661740669766235,5
1538157420.202768,358,0,72034.740027875,1.02911376953125,-0.45361328125,0.2801971435546875,72034.742726875,-1.579607661577533,-1.544003062015936,2.425740811530892,5
1538157420.203304,359,0,72034.749822875,1.057861328125,-0.4177703857421875,0.166259765625,,,,,5
1538157420.2039,360,0,72034.759641875,0.9333648681640625,-0.36663818359375,0.179840087890625,72034.752732875,-1.856105035432829,-0.9310389865628296,2.975544559623353,5
1538157420.204721,361,0,72034.769448875,0.7245635986328125,-0.3253021240234375,0.360321044921875,72034.772741875,-2.587207735790178,-0.2077140481690572,2.646173051801732,5
1538157420.205493,362,0,72034.77925787501,0.5689239501953125,-0.295989990234375,0.506134033203125,,,,,5
1538157420.206223,363,0,72034.789066875,0.376678466796875,-0.149505615234375,0.2988433837890625,72034.78271887501,-3.145020674544943,0.4863555330179767,2.259131323206663,5
1538157420.207503,364,0,72034.79887487501,0.2097625732421875,0.101104736328125,0.173553466796875,72034.802757875,-3.865284841897887,1.201495245801391,2.086556620356765,5
1538157420.253776,365,0,72034.808681875,0.2596435546875,0.3895111083984375,0.515045166015625,,,,,5
1538157420.254856,366,0,72034.81848887501,0.0874786376953125,0.6284332275390625,-0.05889892578125,72034.812757875,-3.352616212045492,1.698952165823363,2.221260373557409,5
1538157420.255871,367,0,72034.828283875,0.1394195556640625,1.003036499023438,-0.1519012451171875,72034.822739875,-2.923534088798541,2.570519835767524,2.42048799259682,5
1538157420.256747,368,0,72034.83810187501,0.2075042724609375,1.612823486328125,-0.0205230712890625,72034.832743875,-3.245501742473633,3.581863515524494,2.536383703230997,5
1538157420.25735,369,0,72034.847892875,0.2427978515625,2.6109619140625,-0.0849761962890625,,,,,5
1538157420.259008,370,0,72034.857702875,0.1226348876953125,4.770751953125,-0.433258056640625,72034.842755875,-3.906955323474357,4.346396344413389,2.677289425978218,5
1538157420.261488,371,0,72034.867494875,-0.2624664306640625,6.636459350585938,-0.6978759765625,72034.86278887501,-4.546696152107666,-0.7383417048324022,2.746206708667288,5
1538157420.262381,372,0,72034.87732887501,-0.2870635986328125,5.978286743164062,-0.1982421875,72034.872784875,-2.629906197547419,-5.696465352688666,2.299121882767511,5
1538157420.263282,373,0,72034.887112875,0.275390625,3.698318481445312,0.8584747314453125,72034.89280487501,-1.190453779921922,-4.707807810677536,3.944082718547261,5
1538157420.263823,374,0,72034.89692687501,0.49163818359375,2.48455810546875,0.9539642333984375,,,,,5
1538157420.264441,375,0,72034.906731875,0.424072265625,1.9599609375,0.4974365234375,72034.902784875,-1.771160316671444,-1.927027412106621,4.35728680905905,5
1538157420.265103,376,0,72034.916539875,0.269561767578125,1.522689819335938,0.4070892333984375,72034.91281387501,-1.803793627404839,-1.831087300152625,3.798990506566436,5
1538157420.265997,377,0,72034.92633687501,0.2802581787109375,1.091705322265625,0.518890380859375,72034.92281787501,-1.128582156212765,-1.820865821572792,3.193189801813424,5
1538157420.266697,378,0,72034.936162875,0.343902587890625,0.82415771484375,0.4585723876953125,72034.93281487501,-0.2671086657483314,-1.027166585057567,2.889205143399093,5
1538157420.267361,379,0,72034.945942875,0.39910888671875,0.64251708984375,0.2956085205078125,72034.942831875,0.2447184051995992,0.03219016072800577,2.484814251882703,5
1538157420.268599,380,0,72034.955771875,0.41156005859375,0.617919921875,0.0259552001953125,72034.95283587501,0.3444202321933317,1.034475896985398,1.835830656370165,5
1538157420.270123,381,0,72034.96557887501,0.4246826171875,0.64971923828125,-0.193756103515625,,,,,5
1538157420.271099,382,0,72034.975377875,0.3989105224609375,0.6326904296875,-0.2808074951171875,72034.97284687501,0.0366142039308454,2.227762215042729,0.1892817776324008,5
1538157420.272066,383,0,72034.985190875,0.2976226806640625,0.53857421875,-0.307159423828125,72034.98285087501,-0.02191888103578816,2.588835459848435,-0.3861876528334804,5
1538157420.272806,384,0,72034.99499587501,0.178619384765625,0.415771484375,-0.3202362060546875,,,,,5
1538157420.274068,385,0,72035.00478687501,0.0765380859375,0.26239013671875,-0.323699951171875,72035.002862875,0.5070488273201105,2.375090949707002,-1.010984153009809,5
1538157420.27493,386,0,72035.014602875,-0.0280609130859375,0.0422515869140625,-0.2744903564453125,72035.01286687501,0.8851623083606887,1.902465343688929,-1.27951574572857,5
1538157420.275657,387,0,72035.02440787501,-0.111968994140625,-0.17138671875,-0.28448486328125,,,,,5
1538157420.277238,388,0,72035.034213875,-0.207366943359375,-0.3675079345703125,-0.4372406005859375,72035.032849875,1.612388511435318,-0.102106395141965,-1.618201925778852,5
1538157420.278385,389,0,72035.044019875,-0.3065338134765625,-0.6066741943359375,-0.671234130859375,72035.042853875,2.032170343523494,-1.991106263727235,-1.744617122718842,5
1538157420.279084,390,0,72035.05382487501,-0.457061767578125,-0.7986602783203125,-0.5511322021484375,,,,,5
1538157420.279965,391,0,72035.063631875,-0.5782318115234375,-0.8310089111328125,-0.2276611328125,72035.052887875,2.310501037473201,-3.826855693684153,-1.979429367611674,5
1538157420.281042,392,0,72035.073436875,-0.6444091796875,-0.804718017578125,0.0804290771484375,72035.07288587501,1.988310743530979,-3.838047095532993,-3.038529917300381,5
1538157420.281577,393,0,72035.08324187501,-0.6796875,-0.7646636962890625,0.366790771484375,,,,,5
1538157420.282173,394,0,72035.09304787501,-0.6331787109375,-0.672088623046875,0.754119873046875,72035.082902875,1.587037881018854,-2.374867244175435,-3.555468127012392,5
1538157420.282993,395,0,72035.10284787501,-0.460205078125,-0.5062713623046875,0.9713134765625,72035.102884875,-0.5330295616504874,3.885122995173997,-3.251296514689536,5
1538157420.283508,396,0,72035.112646875,-0.1884002685546875,-0.2866973876953125,0.96136474609375,,,,,5
1538157420.284097,397,0,72035.122465875,0.1842193603515625,0.065765380859375,0.165985107421875,72035.112919875,-1.947152121516023,7.966069290565956,-2.48987772006327,5
1538157420.28495,398,0,72035.13227087501,0.4941253662109375,0.5738677978515625,-0.7078399658203125,72035.13291487501,-3.188800912336974,4.972607515760768,0.3188653373212583,5
1538157420.285482,399,0,72035.142065875,0.7609710693359375,1.28131103515625,-0.2173919677734375,,,,,5
1538157420.286065,400,0,72035.15188087501,0.726165771484375,1.250473022460938,-0.192596435546875,72035.142935875,-2.381889733653865,-2.633147797226263,2.558879158642787,5
1538157420.286877,401,0,72035.16168787501,0.4349822998046875,1.119171142578125,-0.133758544921875,72035.16294387501,2.51257211360849,-6.803094006771471,3.746327294958446,5
1538157420.287568,402,0,72035.171483875,0.1920318603515625,1.397125244140625,-0.1634063720703125,,,,,5
1538157420.339773,403,0,72035.181273875,-0.0367889404296875,2.20269775390625,-0.3820648193359375,72035.172950875,3.552373001193502,-6.431248009040286,2.535295535609591,5
1538157420.342281,404,0,72035.191102875,-0.224945068359375,3.661529541015625,-0.5028533935546875,72035.19296087501,3.395381252829984,-5.976377431693662,-2.367699612417596,5
1538157420.342904,405,0,72035.200881875,-0.619110107421875,3.568145751953125,0.21697998046875,,,,,5
1538157420.343523,406,0,72035.210709875,-0.8093719482421875,2.102798461914062,0.0389404296875,72035.202966875,2.528508469571524,-3.818367400341744,-3.663898730794968,5
1538157420.344377,407,0,72035.220513875,-0.7661895751953125,1.494415283203125,-0.449462890625,72035.222975875,0.4526463052041898,0.891526198101542,-1.521416260178756,5
1538157420.345069,408,0,72035.23029187501,-0.3197174072265625,1.2841796875,-0.3360443115234375,72035.23295387501,-0.3671875963524191,1.709243419223756,-1.49760440424014,5
1538157420.345585,409,0,72035.24012687501,-0.02685546875,1.236801147460938,-0.4511260986328125,,,,,5
1538157420.346822,410,0,72035.249932875,0.194854736328125,1.436676025390625,-0.61822509765625,72035.25299187501,-0.9994055275384718,4.034648571421477,-3.535288290168425,5
1538157420.34741,411,0,72035.25973387501,0.4735565185546875,1.552764892578125,-0.5635528564453125,,,,,5
1538157420.348018,412,0,72035.26954387501,0.85858154296875,2.124404907226562,-0.358367919921875,72035.26299687501,-0.49029541353464,4.512001022058332,-3.879931961577214,5
1538157420.348859,413,0,72035.279350875,1.255218505859375,2.490646362304688,-0.32415771484375,72035.283006875,2.355509525159976,0.6835764601760127,-2.847102963409921,5
1538157420.349381,414,0,72035.28915687501,1.395233154296875,2.518402099609375,-0.231536865234375,,,,,5
1538157420.350065,415,0,72035.298963875,1.468338012695312,2.406707763671875,-0.1530303955078125,72035.292987875,2.946243928678083,1.236165608452587,-2.833476633376422,5
1538157420.354251,416,0,72035.308752875,1.598709106445312,2.243804931640625,0.0833587646484375,72035.303018875,3.329848315254186,1.733618533732924,-3.193408979971138,5
1538157420.360033,417,0,72035.31857487501,1.5345458984375,2.043792724609375,0.3883209228515625,72035.31302287501,3.762838361084719,1.000982651536017,-3.463687340048882,5
1538157420.362535,418,0,72035.32838187501,0.903594970703125,1.708419799804688,0.67095947265625,72035.32301187501,3.755741569411876,0.4877337188820928,-3.064616112809925,5
1538157420.363489,419,0,72035.33817087501,0.2637176513671875,1.352249145507812,0.7594451904296875,72035.33303387501,3.35303006727889,1.57339131096107,-2.464251452473983,5
1538157420.364534,420,0,72035.34799187501,-0.1368255615234375,1.174591064453125,0.611175537109375,72035.34303787501,2.578050190065832,2.570164303761998,-2.225033806505942,5
1538157420.365553,421,0,72035.35779787501,-0.4392242431640625,1.150802612304688,0.2321929931640625,,,,,5
1538157420.366345,422,0,72035.36758987501,-0.6567230224609375,1.130157470703125,0.0595550537109375,72035.35304087501,1.861816450706614,2.612042245587385,-2.09524491709704,5
1538157420.372251,423,0,72035.377402875,-0.7008056640625,1.052459716796875,0.1394500732421875,72035.37305387501,1.590165497403043,0.1071626727875895,-1.835226385118826,5
1538157420.418,424,0,72035.387213875,-0.578582763671875,0.838043212890625,0.20599365234375,,,,,5
1538157420.419221,425,0,72035.396994875,-0.407257080078125,0.5460662841796875,0.4109954833984375,72035.39306487501,0.8326682074819187,-1.164800880721734,-1.249561841367904,5
1538157420.420214,426,0,72035.406805875,-0.1868133544921875,0.2945098876953125,0.4893951416015625,72035.40306887501,0.1131997926626901,-1.254587226344883,-1.009073867559895,5
1538157420.420938,427,0,72035.416628875,0.064056396484375,0.07196044921875,0.4174957275390625,,,,,5
1538157420.421768,428,0,72035.42642787501,0.3194427490234375,-0.1493988037109375,0.3085479736328125,72035.423065875,-0.8574840751514951,-1.485405262234814,-0.4110384079133368,5
1538157420.422923,429,0,72035.436228875,0.5655059814453125,-0.364349365234375,0.2693939208984375,72035.433069875,-0.9768096709535854,-1.64249927598419,0.3027835727627058,5
1538157420.424259,430,0,72035.446019875,0.81756591796875,-0.4749603271484375,0.305145263671875,,,,,5
1538157420.425913,431,0,72035.455821875,1.040573120117188,-0.4170684814453125,0.260406494140625,72035.44309087501,-1.157933387218747,-1.690286772268463,1.257013099781837,5
1538157420.427146,432,0,72035.46563987501,1.0230712890625,-0.3445892333984375,0.096160888671875,72035.463077875,-1.634764390914164,-0.5924494792601174,2.760045825271885,5
1538157420.428728,433,0,72035.47545887501,0.8855133056640625,-0.3048248291015625,0.0756988525390625,,,,,5
1538157420.42941,434,0,72035.48526287501,0.7042694091796875,-0.213104248046875,0.2049102783203125,72035.47310687501,-1.870874926838409,0.1154714690725277,3.129485923274293,5
1538157420.430293,435,0,72035.49505687501,0.5537261962890625,-0.1366424560546875,0.380462646484375,72035.49311387501,-2.551089945086524,0.5630212828986328,2.69402899132602,5
1538157420.43083,436,0,72035.504878875,0.4290924072265625,-0.0128631591796875,0.3649749755859375,,,,,5
1538157420.431346,437,0,72035.514661875,0.30426025390625,0.2257843017578125,0.3643646240234375,72035.503122875,-3.10923258318424,0.9440208316125299,2.300811125846948,5
1538157420.432162,438,0,72035.524480875,0.2171783447265625,0.485321044921875,0.39208984375,72035.52312287501,-3.495488412941627,0.9216798395439642,2.025324155309227,5
1538157420.432739,439,0,72035.534273875,0.0682220458984375,0.7042999267578125,-0.0340423583984375,,,,,5
1538157420.433246,440,0,72035.544092875,0.1223907470703125,1.064712524414062,-0.097747802734375,72035.533137875,-3.046159873823458,1.824266411968714,2.132895889640253,5
1538157420.434059,441,0,72035.553897875,0.1598358154296875,1.702911376953125,-0.0975799560546875,72035.553148875,-3.43186123344189,4.153370428604446,2.35544427771327,5
1538157420.434673,442,0,72035.56370287501,0.145477294921875,2.806884765625,-0.198516845703125,,,,,5
1538157420.435788,443,0,72035.573507875,-0.097137451171875,4.836090087890625,-0.5694732666015625,72035.56315487501,-4.207007291906969,4.847868778726983,2.488252126533886,5
1538157420.437398,444,0,72035.58332387501,-0.6428070068359375,6.401962280273438,-0.8244781494140625,72035.583158875,-4.106945938166076,-1.387025428406197,2.005494524148606,5
1538157420.438085,445,0,72035.593134875,-0.9078369140625,5.701431274414062,-0.4338531494140625,,,,,5
1538157420.438912,446,0,72035.602942875,-0.35589599609375,3.484130859375,0.5261688232421875,72035.59315287501,-1.982905591782554,-5.657053764348801,1.389153560433279,5
1538157420.439782,447,0,72035.61274887501,0.1702880859375,2.36798095703125,0.880035400390625,72035.613181875,-1.322299428640693,-3.969703393498259,3.889242106432022,5
1538157420.440399,448,0,72035.622528875,0.2387847900390625,2.010635375976562,0.4969635009765625,,,,,5
1538157420.440995,449,0,72035.63236087501,0.144775390625,1.644882202148438,0.2645721435546875,72035.62318587501,-1.716054720027743,-2.090152953092808,4.150244410116911,5
1538157420.441808,450,0,72035.642165875,0.117095947265625,1.27911376953125,0.350799560546875,72035.64318487501,-0.911928675212639,-2.793020819573137,3.062069065543373,5
1538157420.442309,451,0,72035.65195287501,0.2122650146484375,0.968597412109375,0.42138671875,,,,,5
1538157420.4429,452,0,72035.66177787501,0.286834716796875,0.7810516357421875,0.3109588623046875,72035.65320087501,-0.08820815636116849,-2.067830070519655,2.80828898841867,5
1538157420.443714,453,0,72035.671582875,0.2927703857421875,0.7329559326171875,0.1159210205078125,72035.67319687501,0.4102983154464038,0.06783257717708126,1.839503155513385,5
1538157420.444214,454,0,72035.68136287501,0.26397705078125,0.745819091796875,-0.1242828369140625,,,,,5
1538157420.445021,455,0,72035.691193875,0.261444091796875,0.70758056640625,-0.2340087890625,72035.68321687501,0.1824132188649774,0.9018893568513673,1.102121520253956,5
1538157420.447426,456,0,72035.70099887501,0.252655029296875,0.6136016845703125,-0.2506866455078125,72035.70321987501,-0.3280322041094201,2.352777121881555,-0.2213395792542296,5
1538157420.491978,457,0,72035.71079687501,0.1857452392578125,0.4673309326171875,-0.2587432861328125,,,,,5
1538157420.57866,458,0,72035.720605875,0.0927276611328125,0.30633544921875,-0.297607421875,72035.71320687501,-0.2899378152447086,2.706254764942246,-0.6881488414515698,5
1538157420.580338,459,0,72035.730411875,-0.010040283203125,0.0724639892578125,-0.27288818359375,72035.73322587501,0.4574692899383233,1.923209238051774,-1.484364498880811,5
1538157420.581053,460,0,72035.740205875,-0.072235107421875,-0.1563262939453125,-0.225433349609375,,,,,5
1538157420.582095,461,0,72035.750022875,-0.1415863037109375,-0.332916259765625,-0.2465667724609375,72035.743247875,0.8932588507067475,1.248061682725862,-1.732670981017074,5
1538157420.583402,462,0,72035.759824875,-0.1992645263671875,-0.5317840576171875,-0.3789215087890625,72035.763256875,1.510386778524193,-0.8133672137976785,-2.028374540021804,5
1538157420.584013,463,0,72035.76963387501,-0.259765625,-0.77777099609375,-0.4525299072265625,,,,,5
1538157420.584591,464,0,72035.77943787501,-0.37225341796875,-0.9013214111328125,-0.3307647705078125,72035.773236875,1.817742199930238,-2.103560903916921,-2.121016593281845,5
1538157420.585977,465,0,72035.789220875,-0.435791015625,-0.89544677734375,-0.1694793701171875,72035.79327387501,1.732793220111108,-2.798750078026224,-2.876347667972299,5
1538157420.586645,466,0,72035.79905087501,-0.4716033935546875,-0.8329010009765625,0.04498291015625,,,,,5
1538157420.58723,467,0,72035.808855875,-0.48358154296875,-0.752410888671875,0.4354095458984375,72035.80326687501,1.487573607994356,-2.198512450474279,-3.294640793011121,5
1538157420.587785,468,0,72035.818661875,-0.4294586181640625,-0.670013427734375,1.01385498046875,,,,,5
1538157420.588549,469,0,72035.82846787501,-0.2462310791015625,-0.489227294921875,1.025909423828125,72035.823289875,-0.696693593809089,3.463421290255983,-2.950410177887403,5
1538157420.58933,470,0,72035.83826287501,0.04791259765625,-0.1955108642578125,0.275054931640625,,,,,5
1538157420.59175,471,0,72035.84807987501,0.3373565673828125,0.341766357421875,-0.618896484375,72035.83326487501,-2.296833694758915,6.853441599811638,-2.099406638932507,5
1538157420.601536,472,0,72035.85788587501,0.5656280517578125,0.858306884765625,-0.5485382080078125,72035.853305875,-2.205758911800385,2.635486585295571,1.040115140593641,5
1538157420.612135,473,0,72035.867691875,0.5567474365234375,1.11474609375,-0.1778106689453125,,,,,5
1538157420.656534,474,0,72035.877497875,0.414520263671875,1.108001708984375,0.31109619140625,72035.863294875,-1.115161954847638,-2.725946444358401,2.952934854600798,5
1538157420.657697,475,0,72035.88729687501,0.1957550048828125,1.187652587890625,0.08721923828125,72035.883320875,2.703302384557785,-6.285188004319326,3.649566396756488,5
1538157420.658413,476,0,72035.897107875,-0.0643463134765625,1.676895141601562,-0.19171142578125,72035.893323875,3.503648871153848,-6.213141507349413,2.477753679200685,5
1538157420.658992,477,0,72035.90689687501,-0.356201171875,3.2620849609375,-0.572540283203125,72035.90333287501,3.784186260382794,-5.911227989314836,0.2557899647993856,5
1538157420.66042,478,0,72035.916722875,-0.682464599609375,4.224288940429688,-0.4369354248046875,72035.913336875,3.778679908512947,-5.505943340936614,-2.783902156000706,5
1538157420.67013,479,0,72035.926530875,-0.974212646484375,2.855453491210938,-0.25408935546875,72035.92332287501,3.149755242330886,-3.025459122670272,-3.831828880703767,5
1538157420.682244,480,0,72035.936312875,-0.9692230224609375,1.89801025390625,-0.597747802734375,72035.933347875,1.829325352775429,-0.4368641462682712,-2.391257935420437,5
1538157420.692537,481,0,72035.946143875,-0.4828033447265625,1.636093139648438,-0.5488128662109375,72035.943351875,0.1302642636634818,0.5403127745996361,-1.057538339393266,5
1538157420.732945,482,0,72035.955949875,-0.06243896484375,1.449264526367188,-0.5619049072265625,,,,,5
1538157420.734767,483,0,72035.965743875,0.169586181640625,1.555496215820312,-0.494476318359375,72035.953357875,-1.066991762314721,1.283862290943688,-1.411018911931157,5
1538157420.735768,484,0,72035.975566875,0.424713134765625,1.740737915039062,-0.1959991455078125,72035.97336787501,-1.49193746375656,4.293108887845885,-3.618992242177943,5
1538157420.736308,485,0,72035.985370875,0.7393798828125,2.2281494140625,0.158111572265625,,,,,5
1538157420.740387,486,0,72035.99517187501,1.174697875976562,2.362289428710938,-0.2223358154296875,72035.98337487501,-0.2574296730825474,4.00903269016044,-4.109236789335762,5
1538157420.74854,487,0,72036.00498287501,1.303863525390625,2.29095458984375,-0.3365631103515625,72036.003382875,2.657976448069072,1.297139214242169,-3.039329131943513,5
1538157420.758272,488,0,72036.01479087501,1.337478637695312,2.191375732421875,-0.3030853271484375,,,,,5
1538157420.773314,489,0,72036.02459887501,1.431503295898438,2.046417236328125,-0.117767333984375,72036.013379875,3.02438320558988,1.879076131415308,-2.718170812923697,5
1538157420.817013,490,0,72036.034406875,1.428680419921875,1.869613647460938,0.227142333984375,72036.03339687501,3.493406886233621,0.6001457484943374,-2.967995296881305,5
1538157420.817976,491,0,72036.044191875,0.833831787109375,1.63189697265625,0.6142120361328125,72036.04337887501,3.525908104176948,0.6352475432421268,-2.591814471843797,5
1538157420.818597,492,0,72036.054018875,0.2708587646484375,1.351516723632812,0.7166595458984375,,,,,5
1538157420.819387,493,0,72036.063820875,-0.077789306640625,1.189132690429688,0.55194091796875,72036.06339587501,2.431058078963344,2.117238100327241,-1.974884683211454,5
1538157420.819963,494,0,72036.073614875,-0.3657073974609375,1.1212158203125,0.2572021484375,,,,,5
1538157420.826893,495,0,72036.08344087501,-0.542510986328125,1.107696533203125,0.017547607421875,72036.07342087501,1.778744466823772,1.683652571676966,-1.852590195426143,5
1538157420.836306,496,0,72036.09323687501,-0.603271484375,1.038131713867188,0.0610809326171875,72036.093424875,1.347939810983758,-0.5153373835807641,-1.690261738554216,5
1538157420.846265,497,0,72036.103045875,-0.517608642578125,0.9050445556640625,0.1977081298828125,,,,,5
1538157420.891246,498,0,72036.112850875,-0.370697021484375,0.6810455322265625,0.420562744140625,72036.10342087501,1.15375542010063,-1.002648458797861,-1.492546262381752,5
1538157420.892759,499,0,72036.122641875,-0.2281951904296875,0.4316864013671875,0.5692901611328125,72036.123423875,0.05574635320197464,-1.289237082655686,-1.092509372931533,5
1538157420.89349,500,0,72036.13247187501,-0.034027099609375,0.2285308837890625,0.4998016357421875,,,,,5
1538157420.894608,501,0,72036.14227887501,0.2347259521484375,0.0169677734375,0.3458709716796875,72036.13343087501,-0.5975345190455147,-1.638444080592326,-0.9069301881626692,5
1538157420.895897,502,0,72036.152074875,0.554656982421875,-0.1820526123046875,0.2333831787109375,72036.153436875,-1.139278476414959,-2.150973427119711,0.2665794956397327,5
1538157420.905706,503,0,72036.161870875,0.8314208984375,-0.26507568359375,0.203948974609375,,,,,5
1538157420.914873,504,0,72036.17169087501,1.0155029296875,-0.2604522705078125,0.2275848388671875,72036.163445875,-1.368940434075687,-1.98003976413352,1.233585537988518,5
1538157420.925567,505,0,72036.181493875,1.019790649414062,-0.235076904296875,0.117950439453125,72036.183478875,-1.825140461438478,-0.5985441234147637,2.656920238380747,5
1538157420.978673,506,0,72036.191308875,0.8595428466796875,-0.2886962890625,-0.0060882568359375,72036.19345987501,-1.995297812966911,-0.2717236576013297,3.010719857617228,5
1538157420.979457,507,0,72036.201116875,0.6743011474609375,-0.308624267578125,0.0976104736328125,,,,,5
1538157420.980305,508,0,72036.21090387501,0.5439453125,-0.3242034912109375,0.349761962890625,72036.21349387501,-2.645772778689893,-0.1906138908096584,2.899026348867087,5
1538157420.980838,509,0,72036.22073287501,0.4425811767578125,-0.2772979736328125,0.4651641845703125,,,,,5
1538157420.981413,510,0,72036.230535875,0.3542938232421875,-0.12274169921875,0.3626708984375,72036.22346987501,-3.094635264617298,0.3775060139959311,2.677064388866106,5
1538157420.986236,511,0,72036.24032887501,0.330230712890625,0.180999755859375,0.4520416259765625,72036.24351087501,-3.29842621018456,0.9602083236663586,2.440457706030779,5
1538157420.995271,512,0,72036.250144875,0.185089111328125,0.4237213134765625,0.1734771728515625,,,,,5
1538157421.004829,513,0,72036.259943875,0.1316986083984375,0.6379852294921875,-0.15350341796875,72036.253495875,-2.835891055220687,1.933474925105703,2.501818801758968,5
1538157421.057019,514,0,72036.26977487501,0.2037506103515625,1.051971435546875,-0.1603546142578125,72036.273525875,-3.376784398937961,4.365992948978628,2.769945860308145,5
1538157421.057787,515,0,72036.27956587501,0.2620697021484375,1.864700317382812,-0.158233642578125,,,,,5
1538157421.058644,516,0,72036.28937087501,0.2100372314453125,3.3095703125,-0.390380859375,72036.283508875,-4.084567928158358,4.799618691361363,2.924581776371378,5
1538157421.060558,517,0,72036.299177875,-0.0074310302734375,5.4483642578125,-0.879852294921875,72036.293537875,-4.403293449522387,2.658648363612099,3.05565936943177,5
1538157421.061222,518,0,72036.30898487501,-0.3640594482421875,6.401565551757812,-0.7306060791015625,72036.30354187501,-3.055355769067501,-1.870832582577077,2.80942189714639,5
1538157421.062208,519,0,72036.31879387501,-0.20361328125,5.23956298828125,0.488250732421875,72036.31354687501,-0.8062821400336316,-6.042480285742736,2.652841873487399,5
1538157421.072225,520,0,72036.328600875,0.1702728271484375,3.391937255859375,1.043792724609375,72036.323551875,-0.4141172884495774,-6.316354445924305,3.272630032917725,5
1538157421.082078,521,0,72036.33840787501,0.3165740966796875,2.535598754882812,0.6372833251953125,72036.33355587501,-1.135773756420415,-3.075392061528713,3.639380071903044,5
1538157421.134658,522,0,72036.34822287501,0.25555419921875,1.839553833007812,0.37640380859375,72036.34353687501,-1.423657741832455,-1.56315545131135,3.158396401119866,5
1538157421.13621,523,0,72036.35801887501,0.24041748046875,1.225326538085938,0.445770263671875,72036.353542875,-0.9414215863886125,-1.9333359080968,2.720753013916638,5
1538157421.137055,524,0,72036.367812875,0.321563720703125,1.001449584960938,0.436187744140625,72036.363546875,-0.1559126354898169,-1.789451173354217,2.725594108146184,5
1538157421.137572,525,0,72036.37764787501,0.2998046875,0.882354736328125,0.2940521240234375,,,,,5
1538157421.138141,526,0,72036.38742687501,0.2665557861328125,0.802703857421875,0.1224212646484375,72036.37357887501,0.4598938317947314,-1.05198325167547,2.405662174808349,5
1538157421.141019,527,0,72036.397260875,0.2154388427734375,0.7980499267578125,-0.1244659423828125,72036.393588875,0.4055914445357978,0.8896689095573207,1.054424038814528,5
1538157421.150735,528,0,72036.407067875,0.1881561279296875,0.783905029296875,-0.2595062255859375,,,,,5
1538157421.160502,529,0,72036.41686487501,0.1619873046875,0.73834228515625,-0.276519775390625,72036.403570875,0.09170169107913444,1.532574905146188,0.4145540468683504,5
1538157421.171808,530,0,72036.426681875,0.1177978515625,0.6337432861328125,-0.225311279296875,72036.42360587501,-0.3302293120087355,2.504220440430001,-0.4973908736269381,5
1538157421.213991,531,0,72036.43648787501,0.0528411865234375,0.5067596435546875,-0.189422607421875,,,,,5
1538157421.215418,532,0,72036.44627887501,-0.0474700927734375,0.3096466064453125,-0.169342041015625,72036.433606875,-0.2699550523214081,2.901682585738332,-0.7863694182470002,5
1538157421.216432,533,0,72036.45609987501,-0.135101318359375,0.06451416015625,-0.103759765625,72036.45362087501,0.5018790990120486,2.541528664140921,-1.392660144640586,5
1538157421.216961,534,0,72036.465906875,-0.2367401123046875,-0.1676788330078125,-0.12835693359375,,,,,5
1538157421.222123,535,0,72036.47569987501,-0.3338775634765625,-0.40863037109375,-0.27978515625,72036.473632875,1.656780743645849,0.265750453592391,-1.653538877650895,5
1538157421.229269,536,0,72036.48551887501,-0.3677978515625,-0.6611328125,-0.4183197021484375,72036.48363687501,2.125668603073996,-1.594012167281553,-1.709349146719032,5
1538157421.238455,537,0,72036.495306875,-0.376220703125,-0.9126129150390625,-0.387664794921875,,,,,5
1538157421.292915,538,0,72036.505131875,-0.412689208984375,-1.0364990234375,-0.2945556640625,72036.50361887501,2.281346347755668,-3.279848264736276,-2.039240503585436,5
1538157421.294275,539,0,72036.514940875,-0.45166015625,-1.029266357421875,-0.150665283203125,72036.51362287501,1.954496054538025,-2.961647386106992,-2.439204955054006,5
1538157421.294901,540,0,72036.52474587501,-0.4830322265625,-0.9315643310546875,0.0951385498046875,,,,,5
1538157421.295479,541,0,72036.53455187501,-0.4481048583984375,-0.79779052734375,0.711883544921875,72036.523658875,1.47189291549597,-2.18788191035101,-2.807961153288482,5
1538157421.296285,542,0,72036.54434787501,-0.29498291015625,-0.5914306640625,0.9309234619140625,72036.54366587501,-1.396539837716614,3.168305490903833,-2.28518715867978,5
1538157421.297828,543,0,72036.554163875,-0.045196533203125,-0.347442626953125,0.7359161376953125,,,,,5
1538157421.309684,544,0,72036.56396887501,0.2951507568359375,0.002227783203125,-0.04998779296875,72036.553674875,-2.835153892230954,6.415744683070498,-1.468748521196913,5
1538157421.318868,545,0,72036.573775875,0.5016632080078125,0.610321044921875,-0.5268096923828125,72036.573679875,-2.60669621601516,2.968592910229919,1.369126855351992,5
1538157421.326839,546,0,72036.58356287501,0.78778076171875,1.403915405273438,0.2313385009765625,,,,,5
1538157421.370565,547,0,72036.593382875,0.5979766845703125,1.26800537109375,-0.007293701171875,72036.58369087501,-1.204403950343975,-3.749841868649024,3.194112587131137,5
1538157421.371876,548,0,72036.603186875,0.3084716796875,1.158676147460938,-0.147796630859375,72036.603677875,2.885592032748182,-6.118890638474854,3.264485819988153,5
1538157421.372741,549,0,72036.612958875,0.0931396484375,1.449813842773438,-0.26971435546875,,,,,5
1538157421.373563,550,0,72036.622794875,-0.14361572265625,2.725509643554688,-0.7615966796875,72036.61370687501,3.482314287661223,-5.521157447612019,1.766996730623214,5
1538157421.380127,551,0,72036.63259987501,-0.4018402099609375,4.0443115234375,-0.9119873046875,72036.633706875,3.44411550288178,-5.51093783324495,-3.620492667136093,5
1538157421.385908,552,0,72036.642400875,-0.8768463134765625,3.197586059570312,0.1500396728515625,,,,,5
1538157421.397017,553,0,72036.65221087501,-1.13604736328125,1.98333740234375,0.00860595703125,72036.64372187501,3.051176204052731,-2.890331394224087,-4.402815678422827,5
1538157421.406963,554,0,72036.662015875,-1.032135009765625,1.582809448242188,-0.35333251953125,72036.663706875,0.6940224432357396,1.235654547839401,-1.466121579097659,5
1538157421.450691,555,0,72036.671804875,-0.4417572021484375,1.394577026367188,-0.14251708984375,,,,,5
1538157421.451963,556,0,72036.681627875,-0.1348876953125,1.48321533203125,-0.613189697265625,72036.67371987501,-0.5322300806912457,1.555388341992134,-1.387331958247665,5
1538157421.453019,557,0,72036.69143387501,0.0842742919921875,1.543258666992188,-0.603668212890625,72036.69374687501,-1.413501510699329,3.092575575830231,-3.302317088537165,5
1538157421.453595,558,0,72036.701232875,0.3632659912109375,1.802963256835938,-0.3596038818359375,,,,,5
1538157421.455943,559,0,72036.71104387501,0.7540130615234375,2.364334106445312,-0.0602569580078125,72036.703753875,-0.8357441585409603,3.615729070894268,-3.865022520530515,5
1538157421.46962,560,0,72036.720844875,1.040756225585938,2.503280639648438,-0.3201904296875,72036.723764875,2.57471111869109,1.370323147313656,-3.291117963521164,5
1538157421.475521,561,0,72036.730646875,1.149398803710938,2.5455322265625,-0.3821868896484375,,,,,5
1538157421.492307,562,0,72036.740457875,1.29443359375,2.560546875,-0.240020751953125,72036.733768875,3.266439514963836,1.915669296373542,-3.00683776769622,5
1538157421.531864,563,0,72036.75024987501,1.509170532226562,2.408721923828125,0.0732269287109375,72036.753749875,3.915749614026017,0.464450500419857,-3.168282587718458,5
1538157421.532689,564,0,72036.76006687501,1.42657470703125,2.044158935546875,0.4710845947265625,,,,,5
1538157421.533745,565,0,72036.769871875,0.733245849609375,1.532119750976562,0.784423828125,72036.763770875,3.556509955630831,0.1475039706640008,-2.913872140363734,5
1538157421.534707,566,0,72036.779675875,0.2354888916015625,1.2015380859375,0.8053131103515625,72036.783795875,1.825517565048833,1.731873896902813,-2.280792143932822,5
1538157421.535684,567,0,72036.78947987501,-0.134613037109375,1.085296630859375,0.534393310546875,,,,,5
1538157421.544329,568,0,72036.799261875,-0.37139892578125,1.050094604492188,0.1259765625,72036.793775875,1.27016059345134,1.789922552867161,-1.989654840933142,5
1538157421.552335,569,0,72036.80908787501,-0.51153564453125,0.9747467041015625,-0.027618408203125,,,,,5
1538157421.562473,570,0,72036.818894875,-0.51824951171875,0.8420867919921875,0.0255889892578125,72036.813810875,1.364568588830213,0.09172459426450912,-1.674406076372211,5
1538157421.608695,571,0,72036.828698875,-0.412445068359375,0.6084442138671875,0.1566162109375,,,,,5
1538157421.60978,572,0,72036.83847487501,-0.283416748046875,0.364532470703125,0.3758544921875,72036.82380487501,1.188704615717958,-0.6768349341925861,-1.361450826142057,5
1538157421.611318,573,0,72036.84830287501,-0.1351776123046875,0.1740570068359375,0.496063232421875,72036.84382787501,0.1763582558105733,-1.422143734752745,-0.7514551100399524,5
1538157421.612101,574,0,72036.858098875,0.0487213134765625,0.032470703125,0.4515228271484375,,,,,5
1538157421.613274,575,0,72036.867917875,0.3128509521484375,-0.150115966796875,0.3720855712890625,72036.85382987501,-0.4298192862366846,-1.36819341738992,-0.5684205756926595,5
1538157421.621161,576,0,72036.877721875,0.6224365234375,-0.2664794921875,0.2921905517578125,72036.87384287501,-1.177319069425651,-1.200229445335276,0.5094355522890395,5
1538157421.630903,577,0,72036.88750187501,0.8739776611328125,-0.2900390625,0.2596282958984375,,,,,5
1538157421.646316,578,0,72036.89731487501,0.972625732421875,-0.2799835205078125,0.19134521484375,72036.903858875,-1.983560729410714,-0.2061726105301193,2.7418492444917,5
1538157421.646973,579,0,72036.907314875,0.8688201904296875,-0.2548370361328125,0.044219970703125,,,,,5
1538157421.690174,580,0,72036.91708687501,0.6629791259765625,-0.216278076171875,0.0154876708984375,,,,,5
1538157421.691097,581,0,72036.926891875,0.48846435546875,-0.2322235107421875,0.189300537109375,72036.91385487501,-2.149036776375005,-0.0707921480964863,2.923462716081327,5
1538157421.691785,582,0,72036.93668687501,0.34503173828125,-0.2494964599609375,0.329254150390625,72036.92387087501,-2.381512097411292,-0.2485347150416828,2.724236694938571,5
1538157421.692938,583,0,72036.946516875,0.2048492431640625,-0.17120361328125,0.23712158203125,72036.933874875,-2.763977716305278,-0.3094369481140508,2.40752478967475,5
1538157421.69371,584,0,72036.956318875,0.1099700927734375,0.08636474609375,0.28173828125,72036.94386487501,-3.263036527722933,-0.1887283727578823,2.102104953748975,5
1538157421.701912,585,0,72036.96610587501,0.1305694580078125,0.418060302734375,0.5524139404296875,72036.95388687501,-3.677963949776112,-0.2485059529019099,1.911842866519316,5
1538157421.712371,586,0,72036.97593087501,-0.0278472900390625,0.4896240234375,-0.1472015380859375,72036.96389087501,-3.637463661182623,-0.1556322046270316,1.978685280403106,5
1538157421.722093,587,0,72036.98573687501,0.0526275634765625,0.8527679443359375,-0.1522979736328125,72036.97388987501,-3.104062322243961,1.145747561018871,2.193867631217072,5
1538157421.777036,588,0,72036.995524875,0.079376220703125,1.574081420898438,0.0521240234375,72036.983902875,-3.452893281834681,2.399274849249903,2.458966142974612,5
1538157421.778397,589,0,72037.00534487501,0.0550537109375,2.75689697265625,0.217437744140625,72036.99390687501,-4.138226895697929,3.450951571083904,2.673119182027262,5
1538157421.779183,590,0,72037.01514987501,-0.18768310546875,4.771804809570312,0.009185791015625,72037.00388787501,-4.823310705050926,3.809217844100667,3.06935014796365,5
1538157421.780847,591,0,72037.02493087501,-0.632232666015625,6.519210815429688,-0.49609375,72037.02392187501,-3.667655918460851,-1.701347679223889,3.463529680912349,5
1538157421.781423,592,0,72037.034760875,-0.68133544921875,5.959884643554688,-0.5908355712890625,,,,,5
1538157421.78519,593,0,72037.04456587501,-0.1582794189453125,3.913055419921875,0.3849945068359375,72037.03391887501,-1.800091833489629,-5.91529623419604,2.569246844766466,5
1538157421.79859,594,0,72037.05436387501,0.21051025390625,2.591751098632812,0.838592529296875,72037.05393787501,-1.20745220452768,-5.008327962829783,3.30901360709817,5
1538157421.805556,595,0,72037.06414487501,0.3771820068359375,2.104736328125,0.6249542236328125,,,,,5
1538157421.81188,596,0,72037.07397887501,0.3106689453125,1.762588500976562,0.2346343994140625,72037.06391687501,-1.547841476095068,-1.859368739348722,3.858296707197519,5
1538157421.853377,597,0,72037.083773875,0.231048583984375,1.457977294921875,0.251556396484375,72037.073950875,-1.629696927991961,-1.334644778189864,3.673452554889518,5
1538157421.854341,598,0,72037.093589875,0.2470855712890625,1.140701293945312,0.3712005615234375,72037.08395487501,-1.136317041282791,-1.819605347428858,3.215475932763534,5
1538157421.854944,599,0,72037.103394875,0.30908203125,0.8527984619140625,0.3162689208984375,,,,,5
1538157421.855576,600,0,72037.113200875,0.30389404296875,0.7808074951171875,0.1315155029296875,72037.093960875,-0.3271613504329642,-1.45742928761575,2.824695924946321,5
1538157421.862616,601,0,72037.123004875,0.2679443359375,0.76171875,-0.0969696044921875,72037.113965875,0.5105705915456312,0.6437110691863986,1.813831614185566,5
1538157421.869082,602,0,72037.13280987501,0.22802734375,0.7381439208984375,-0.237060546875,,,,,5
1538157421.881166,603,0,72037.14261387501,0.1954193115234375,0.6851806640625,-0.2897186279296875,72037.123975875,0.4495804741572906,1.485288349462959,1.098348353621532,5
1538157421.891751,604,0,72037.152419875,0.164306640625,0.56182861328125,-0.2908935546875,72037.143961875,0.1159673496675004,2.522502508681177,-0.07528942822930312,5
1538157421.941151,605,0,72037.162210875,0.118927001953125,0.384979248046875,-0.295379638671875,,,,,5
1538157421.942053,606,0,72037.172029875,0.053192138671875,0.16424560546875,-0.2653961181640625,72037.15397287501,0.07905061063682203,2.836406643207727,-0.583058374308171,5
1538157421.943004,607,0,72037.181831875,-0.0162200927734375,-0.1048431396484375,-0.139923095703125,72037.173990875,0.4953586153990986,2.58082626918613,-1.388760211540274,5
1538157421.943542,608,0,72037.191629875,-0.076934814453125,-0.3771209716796875,-0.1259918212890625,,,,,5
1538157421.94414,609,0,72037.20144087501,-0.1294097900390625,-0.6631927490234375,-0.2573394775390625,72037.18400787501,0.9501365147397878,2.027322058759005,-1.55787520181805,5
1538157421.947712,610,0,72037.211222875,-0.19940185546875,-0.953338623046875,-0.34832763671875,72037.20401687501,1.811353276475138,-0.1511602245245705,-1.511377740765812,5
1538157421.956969,611,0,72037.221048875,-0.2949981689453125,-1.114303588867188,-0.302764892578125,,,,,5
1538157421.971548,612,0,72037.230856875,-0.3573150634765625,-1.13165283203125,-0.1358795166015625,72037.21402487501,2.242531307499981,-1.795827047319976,-1.482886710791926,5
1538157422.013291,613,0,72037.240662875,-0.3933868408203125,-1.052322387695312,0.11376953125,72037.234017875,2.496441879518098,-3.345145246239492,-2.45420973726773,5
1538157422.014062,614,0,72037.250467875,-0.3975830078125,-0.934722900390625,0.6109619140625,,,,,5
1538157422.014952,615,0,72037.260256875,-0.3159332275390625,-0.793243408203125,0.985595703125,72037.244039875,2.092790814152532,-2.752824397660026,-3.060524964743345,5
1538157422.015804,616,0,72037.270081875,-0.104461669921875,-0.6096649169921875,0.99945068359375,72037.264048875,-0.8822067321829187,3.183977661286731,-2.885219722827789,5
1538157422.016632,617,0,72037.279860875,0.130767822265625,-0.3860626220703125,0.464569091796875,,,,,5
1538157422.027303,618,0,72037.28969387501,0.3996124267578125,0.0355072021484375,-0.27581787109375,72037.27405587501,-2.522282531575136,6.796893635121549,-2.028841125844786,5
1538157422.037195,619,0,72037.29950187501,0.5440216064453125,0.6938018798828125,-0.465606689453125,72037.29405687501,-3.483009372705733,4.041284636225736,1.182678148487218,5
1538157422.051391,620,0,72037.30930187501,0.6528472900390625,1.456192016601562,0.879364013671875,,,,,5
1538157422.094833,621,0,72037.319110875,0.2779083251953125,0.9098663330078125,0.1168212890625,72037.304070875,-2.739757331455443,-2.704387889018101,3.00324329917294,5
1538157422.096235,622,0,72037.32891387501,0.110931396484375,0.6482696533203125,-0.1092529296875,72037.32408187501,3.16048937942056,-6.480344449000333,3.568350103521214,5
1538157422.097709,623,0,72037.338706875,-0.00115966796875,0.837066650390625,-0.390899658203125,,,,,5
1538157422.098529,624,0,72037.34852287501,-0.31268310546875,2.55731201171875,-0.809051513671875,72037.334085875,4.127957213902365,-6.49076326781694,2.92734347442179,5
1538157422.099603,625,0,72037.35832887501,-0.6274566650390625,4.358505249023438,-1.062637329101562,72037.35409787501,4.606966150737249,-5.499570929080273,-1.149550288739395,5
1538157422.10845,626,0,72037.36813487501,-1.018081665039062,3.709136962890625,-0.69976806640625,,,,,5
1538157422.117421,627,0,72037.377938875,-1.120956420898438,2.306610107421875,-0.32318115234375,72037.364087875,3.902064161816318,-4.791722418729278,-3.490146111794928,5
1538157422.124581,628,0,72037.387735875,-0.599151611328125,1.707290649414062,-0.5607757568359375,72037.384113875,1.166924751691072,1.427506808555946,-1.335923361829211,5
1538157422.170619,629,0,72037.397548875,-0.04595947265625,1.366058349609375,-0.1443023681640625,,,,,5
1538157422.171837,630,0,72037.40735387501,0.1231842041015625,1.64459228515625,-0.625091552734375,72037.394116875,-0.6145281499613103,2.051301161214078,-1.10528801879006,5
1538157422.173462,631,0,72037.417139875,0.3227386474609375,1.656082153320312,-0.5141754150390625,72037.41410387501,-1.606832092136977,4.001103660646947,-3.408079471223591,5
1538157422.174196,632,0,72037.426965875,0.58880615234375,1.84649658203125,-0.304046630859375,,,,,5
1538157422.174867,633,0,72037.436764875,1.005828857421875,2.335113525390625,0.0179443359375,72037.42411587501,-1.216810552598218,4.661582791004812,-4.053651024747519,5
1538157422.184384,634,0,72037.446543875,1.16400146484375,2.428924560546875,-0.1867523193359375,72037.44414587501,2.463360092457133,0.7363635087746914,-3.477152548836431,5
1538157422.196255,635,0,72037.45636687501,1.211715698242188,2.354278564453125,-0.2711944580078125,,,,,5
1538157422.205306,636,0,72037.466165875,1.302139282226562,2.24517822265625,-0.167388916015625,72037.454145875,3.248883957058033,1.053053576117573,-3.246663679657234,5
1538157422.25817,637,0,72037.475962875,1.404800415039062,2.138168334960938,0.071624755859375,72037.474160875,3.728320597563984,0.9451580013979937,-3.418872197857246,5
1538157422.259499,638,0,72037.485787875,1.153045654296875,2.008041381835938,0.433074951171875,,,,,5
1538157422.260231,639,0,72037.49558487501,0.6351776123046875,1.6666259765625,0.650177001953125,72037.484143875,3.42557404274043,0.0811166910105055,-2.991429782893457,5
1538157422.261285,640,0,72037.505406875,0.213897705078125,1.395156860351562,0.59246826171875,72037.49417387501,3.015379057944322,0.9827589065127135,-2.443033515437103,5
1538157422.262147,641,0,72037.51520787501,-0.1185760498046875,1.27838134765625,0.2821044921875,72037.504177875,2.409997801062998,1.899769425717442,-2.213198452305521,5
1538157422.262663,642,0,72037.52500987501,-0.381561279296875,1.235565185546875,0.01959228515625,,,,,5
1538157422.273454,643,0,72037.53482087501,-0.4967803955078125,1.11138916015625,0.026336669921875,72037.52418987501,1.731541534398771,0.9251984079761768,-1.952860074680389,5
1538157422.281102,644,0,72037.54462287501,-0.4111328125,0.9066619873046875,0.0270538330078125,72037.53419387501,1.539893005505617,-0.02371598213937363,-1.880574159528478,5
1538157422.291964,645,0,72037.55441887501,-0.2452545166015625,0.651641845703125,0.15911865234375,,,,,5
1538157422.333727,646,0,72037.564217875,-0.10089111328125,0.394195556640625,0.340606689453125,72037.54419887501,1.283352828227156,-0.7214181150532757,-1.599876714318017,5
1538157422.334893,647,0,72037.57400787501,0.0250091552734375,0.1224822998046875,0.500946044921875,72037.564187875,0.6349077238870326,-0.9775633455420779,-0.9642526000977528,5
1538157422.335415,648,0,72037.583812875,0.1949615478515625,-0.148345947265625,0.5469207763671875,,,,,5
1538157422.336016,649,0,72037.593614875,0.420654296875,-0.3573150634765625,0.5313873291015625,72037.574214875,0.2932662339750897,-0.9460179361139803,-0.8987361741207135,5
1538157422.34102,650,0,72037.603417875,0.73223876953125,-0.45867919921875,0.434661865234375,72037.59420987501,-0.6167332473438959,-1.233331472420525,-0.2048274478635203,5
1538157422.351937,651,0,72037.613229875,1.025436401367188,-0.4280853271484375,0.301116943359375,,,,,5
1538157422.36176,652,0,72037.62303087501,1.094268798828125,-0.3378143310546875,0.1557464599609375,72037.604230875,-1.092226278907658,-1.22944831723508,0.6927228206237809,5
1538157422.414289,653,0,72037.632833875,0.9113311767578125,-0.29852294921875,0.0484161376953125,72037.62421187501,-1.651419800371519,0.1177953434397308,2.439162078160455,5
1538157422.415158,654,0,72037.642635875,0.6263275146484375,-0.206573486328125,0.044677734375,,,,,5
1538157422.415813,655,0,72037.652425875,0.3664703369140625,-0.114959716796875,0.14300537109375,72037.634247875,-1.836465820290149,0.9864516456802174,2.870781394977925,5
1538157422.416615,656,0,72037.66226187501,0.1768951416015625,-0.055023193359375,0.22222900390625,72037.654233875,-2.595147684264141,0.9078665556019412,2.326596650469422,5
1538157422.417111,657,0,72037.672060875,0.06768798828125,0.0904083251953125,0.2673187255859375,,,,,5
1538157422.421216,658,0,72037.68184087501,0.0933990478515625,0.36273193359375,0.6302642822265625,72037.664262875,-3.168531060648163,0.5865359300595965,1.822360387576544,5
1538157422.429409,659,0,72037.691658875,-0.038238525390625,0.4708099365234375,0.2934417724609375,72037.684270875,-3.478308893381744,0.2838285237040669,1.524191540350728,5
1538157422.439177,660,0,72037.701465875,-0.0751190185546875,0.633819580078125,-0.131134033203125,,,,,5
1538157422.500666,661,0,72037.711273875,0.028839111328125,1.080413818359375,-0.1180572509765625,72037.69427987501,-2.764997707002778,1.142577866689459,1.732821982250881,5
1538157422.503442,662,0,72037.72107887501,0.0876922607421875,1.922698974609375,-0.120574951171875,72037.71426987501,-3.098075536113462,3.103919576809532,2.493537968665475,5
1538157422.504152,663,0,72037.730881875,-0.007080078125,3.485244750976562,-0.2211151123046875,,,,,5
1538157422.50481,664,0,72037.740688875,-0.2756195068359375,5.814193725585938,-0.4360809326171875,72037.72429487501,-3.945870498587031,4.207714094860276,2.832425217378058,5
1538157422.505807,665,0,72037.75050787501,-0.7370452880859375,6.637985229492188,-0.5561065673828125,72037.744291875,-4.560038056536745,-0.54817176297646,3.015271466236283,5
1538157422.506512,666,0,72037.760308875,-0.6350860595703125,5.072830200195312,-0.2953338623046875,,,,,5
1538157422.513268,667,0,72037.77012287501,-0.0204315185546875,3.11181640625,0.385467529296875,72037.754311875,-2.93921424866471,-4.051142859632883,2.232452840670685,5
1538157422.522435,668,0,72037.779927875,0.3536529541015625,2.204452514648438,0.6063385009765625,72037.77430987501,-1.448728207702243,-5.382937789140253,3.165514764397539,5
1538157422.527332,669,0,72037.789727875,0.3786468505859375,1.843109130859375,0.3936309814453125,,,,,5
1538157422.575035,670,0,72037.79953987501,0.23699951171875,1.514633178710938,0.2443084716796875,72037.784326875,-1.51302916695777,-2.897166663477885,3.974059526093302,5
1538157422.576136,671,0,72037.809344875,0.15130615234375,1.176376342773438,0.368408203125,72037.804333875,-1.52753860120874,-2.237276890669255,3.233780371567867,5
1538157422.5768,672,0,72037.819146875,0.15460205078125,0.907379150390625,0.4059906005859375,,,,,5
1538157422.578098,673,0,72037.828956875,0.215972900390625,0.7283782958984375,0.27850341796875,72037.814313875,-0.9010097147433141,-1.889137820329736,2.802876646135302,5
1538157422.579665,674,0,72037.83876087501,0.2462158203125,0.717437744140625,0.077606201171875,72037.834345875,0.01792413940066931,-0.3126939941272177,1.858582307878821,5
1538157422.586852,675,0,72037.84856687501,0.2629547119140625,0.7565155029296875,-0.1215362548828125,,,,,5
1538157422.598635,676,0,72037.85832312501,0.2637176513671875,0.7269287109375,-0.21630859375,72037.844359875,-0.03623177399831002,0.5060035365922544,1.196614470471602,5
1538157422.607104,677,0,72037.86810812501,0.2158966064453125,0.65106201171875,-0.2679443359375,72037.86429512501,-0.3600364761933383,2.001194051620347,0.0984828981628032,5
1538157422.650813,678,0,72037.877928125,0.1627960205078125,0.50823974609375,-0.306304931640625,,,,,5
1538157422.651742,679,0,72037.88774012501,0.0785980224609375,0.302215576171875,-0.3693389892578125,72037.874325125,-0.3589568306874202,2.415651692057236,-0.3137592585632494,5
1538157422.652655,680,0,72037.897545125,-0.0211181640625,0.0465240478515625,-0.34326171875,72037.89430912501,0.02993978960688881,2.230567588935018,-1.068063418337369,5
1538157422.653177,681,0,72037.907345125,-0.0952301025390625,-0.190093994140625,-0.2777862548828125,,,,,5
1538157422.657726,682,0,72037.91714812501,-0.1842193603515625,-0.4240875244140625,-0.2928924560546875,72037.904341125,0.4144682930812499,1.651968944188294,-1.320816846861846,5
1538157422.666477,683,0,72037.92696112501,-0.22479248046875,-0.695343017578125,-0.4544525146484375,72037.924338125,1.209234924561379,-0.2172271258989293,-1.462715129747339,5
1538157422.676372,684,0,72037.93676912501,-0.337982177734375,-0.9646148681640625,-0.5454559326171875,,,,,5
1538157422.685643,685,0,72037.946574125,-0.5093536376953125,-1.09674072265625,-0.4385223388671875,72037.93435012501,1.725657013654132,-1.689281961589176,-1.467676066225938,5
1538157422.73196,686,0,72037.956380125,-0.644439697265625,-1.088409423828125,-0.225616455078125,72037.954367125,2.022560593046052,-2.889579850164467,-2.444375748626503,5
1538157422.732811,687,0,72037.96618612501,-0.7150421142578125,-0.9782867431640625,0.0181427001953125,,,,,5
1538157422.73363,688,0,72037.97599212501,-0.6538238525390625,-0.84088134765625,0.4039764404296875,72037.96437112501,1.730452301512929,-2.256875625763366,-3.035999647948696,5
1538157422.734455,689,0,72037.98579612501,-0.466278076171875,-0.6883087158203125,0.7974395751953125,72037.97437912501,1.307686663739428,-0.9650720547651702,-3.25247389820746,5
1538157422.735401,690,0,72037.99560212501,-0.2545166015625,-0.4796600341796875,0.941802978515625,72037.984383125,0.3172884796398224,1.667735390473781,-2.922268820964645,5
1538157422.74468,691,0,72038.005410125,0.0300750732421875,-0.219390869140625,0.69677734375,72037.99437912501,-1.078613264679608,5.044957080462733,-2.307740937319443,5
1538157422.755358,692,0,72038.01521312501,0.38250732421875,0.40374755859375,-0.108062744140625,72038.014400125,-4.06473483488832,5.404228696791001,-0.1312640143366975,5
1538157422.763171,693,0,72038.025020125,0.7495574951171875,1.31060791015625,0.4619903564453125,,,,,5
1538157422.810869,694,0,72038.03482312501,0.7760009765625,1.489715576171875,0.2409210205078125,72038.024378125,-3.553628947963583,-1.826874711940338,1.856780146769165,5
1538157422.812325,695,0,72038.044622125,0.4324188232421875,1.026519775390625,-0.222076416015625,72038.044415125,2.746842937851708,-7.300028148271461,4.085953038241308,5
1538157422.813247,696,0,72038.054431125,0.1622161865234375,1.113296508789062,-0.2194061279296875,,,,,5
1538157422.814124,697,0,72038.064233125,-0.0430145263671875,1.869171142578125,-0.511383056640625,72038.05440612501,3.813992891935179,-6.151224609901724,3.02705675300821,5
1538157422.81471,698,0,72038.074009125,-0.290924072265625,3.591262817382812,-1.083450317382812,,,,,5
1538157422.824431,699,0,72038.083843125,-0.5741729736328125,3.964218139648438,-1.193145751953125,72038.074431125,4.047845599887255,-4.700670006323906,-2.046687767257734,5
1538157422.835794,700,0,72038.09364412501,-0.7714385986328125,2.904617309570312,-0.7746124267578125,72038.08443612501,3.297966548580412,-4.282295122239618,-4.488921535419487,5
1538157422.844263,701,0,72038.103430125,-1.011795043945312,1.954421997070312,-0.294830322265625,72038.10444712501,1.149141759828177,0.5588614252759291,-2.750920770112837,5
1538157422.891993,702,0,72038.11325912501,-0.7506866455078125,1.490371704101562,-0.3110504150390625,,,,,5
1538157422.893155,703,0,72038.12305212501,-0.270294189453125,1.35711669921875,-0.5286407470703125,,,,,5
1538157422.893828,704,0,72038.132864125,-0.0588531494140625,1.453201293945312,-0.508514404296875,72038.114453125,0.1689765059010916,1.626225497511043,-1.611882777144312,5
1538157422.894641,705,0,72038.142677125,0.15472412109375,1.678848266601562,-0.140380859375,72038.134464125,-1.008641902831084,2.350132869235216,-2.511601125075047,5
1538157422.895381,706,0,72038.15248212501,0.4508209228515625,2.23675537109375,0.228668212890625,,,,,5
1538157422.901408,707,0,72038.162281125,0.7823486328125,2.465744018554688,0.023345947265625,72038.144468125,-0.8856757658188559,2.794355329595376,-3.394820923736632,5
1538157422.913648,708,0,72038.17209012501,0.98162841796875,2.38470458984375,-0.2605133056640625,72038.16447812501,2.067795982057702,1.259483980641212,-3.866574610813813,5
1538157422.924401,709,0,72038.181895125,1.089706420898438,2.431365966796875,-0.3638916015625,,,,,5
1538157422.933809,710,0,72038.191701125,1.300491333007812,2.451919555664062,-0.2305450439453125,72038.174463125,3.038480382504105,1.820271137701377,-3.496443955140747,5
1538157422.976656,711,0,72038.20150712501,1.44476318359375,2.375244140625,0.1016845703125,72038.194479125,3.768071472626725,0.8086422333916599,-3.253357002424931,5
1538157422.977423,712,0,72038.211308125,1.248703002929688,1.9805908203125,0.6405181884765625,,,,,5
1538157422.978357,713,0,72038.22110512501,0.642486572265625,1.434616088867188,0.89166259765625,72038.204501125,3.589240205427904,-0.3988278143153235,-3.140641106132308,5
1538157422.979227,714,0,72038.230918125,0.159637451171875,1.1578369140625,0.7806854248046875,72038.224508125,2.580678197429522,1.066020773781278,-2.779476514901212,5
1538157422.979726,715,0,72038.240697125,-0.189971923828125,1.062545776367188,0.386260986328125,,,,,5
1538157422.988486,716,0,72038.250510125,-0.4253997802734375,1.00714111328125,0.02825927734375,72038.23451712501,1.712701800215333,1.900675433120287,-2.399352613553733,5
1538157422.998393,717,0,72038.260316125,-0.4949188232421875,0.949432373046875,0.0052947998046875,72038.25450712501,1.110900897103511,0.7442637761484114,-1.936554338274161,5
1538157423.011872,718,0,72038.270116125,-0.3798828125,0.783599853515625,0.1616058349609375,,,,,5
1538157423.050113,719,0,72038.27993012501,-0.2210540771484375,0.5462493896484375,0.408172607421875,72038.26453312501,0.9500182703873883,-0.2811877331671443,-1.756831178426273,5
1538157423.051321,720,0,72038.289739125,-0.07366943359375,0.32525634765625,0.530364990234375,72038.284537125,0.1440791455021589,-1.096736874845925,-1.035513997178311,5
1538157423.051895,721,0,72038.299535125,0.0799560546875,0.14263916015625,0.4163665771484375,,,,,5
1538157423.052471,722,0,72038.309341125,0.278350830078125,-0.0517730712890625,0.263336181640625,72038.294549125,-0.271901290446038,-1.253137135131335,-0.8691939944645735,5
1538157423.059578,723,0,72038.319158125,0.5458526611328125,-0.20611572265625,0.1849517822265625,72038.31455012501,-0.8035017998555889,-1.522806163951669,0.04794835121411363,5
1538157423.068055,724,0,72038.328954125,0.791046142578125,-0.24542236328125,0.165191650390625,,,,,5
1538157423.077543,725,0,72038.33874412501,0.9312896728515625,-0.243255615234375,0.176849365234375,72038.324565125,-1.026208113381247,-1.4688190949658,0.9892671395846491,5
1538157423.130212,726,0,72038.34857312501,0.8932647705078125,-0.25177001953125,0.128753662109375,72038.34456512501,-1.568588566251221,-0.3631121609362709,2.538449517288571,5
1538157423.130978,727,0,72038.35837312501,0.7334747314453125,-0.2738037109375,0.11834716796875,,,,,5
1538157423.131601,728,0,72038.36816912501,0.5555572509765625,-0.28204345703125,0.2699127197265625,72038.35458112501,-1.815321919131574,0.2928808745653552,2.914563496982718,5
1538157423.132391,729,0,72038.377972125,0.398956298828125,-0.2863616943359375,0.48602294921875,72038.374564125,-2.573438127690033,0.4510310980030567,2.626450746033041,5
1538157423.132889,730,0,72038.387777125,0.2415924072265625,-0.23052978515625,0.4815673828125,,,,,5
1538157423.136467,731,0,72038.397587125,0.1067352294921875,-0.030426025390625,0.2670745849609375,72038.384596125,-3.190801478947841,0.4580844801501316,2.17789851837263,5
1538157423.146995,732,0,72038.407387125,0.02001953125,0.1995391845703125,0.2428131103515625,72038.404606125,-3.968907907280653,0.4022550363221465,1.565153621077237,5
1538157423.157281,733,0,72038.41719212501,0.058013916015625,0.4998779296875,0.4585723876953125,,,,,5
1538157423.165948,734,0,72038.426995125,-0.0540924072265625,0.5558013916015625,-0.315185546875,72038.414611125,-3.746037010399628,0.8155440816727092,1.641048652138424,5
1538157423.212766,735,0,72038.436814125,0.0337677001953125,0.89453125,-0.29010009765625,72038.43462312501,-3.306024208774556,2.708193546215824,2.242926786921858,5
1538157423.214498,736,0,72038.44661912501,0.0453643798828125,1.641891479492188,-0.1513214111328125,,,,,5
1538157423.215303,737,0,72038.456422125,-0.0033416748046875,2.900482177734375,-0.1819305419921875,72038.444615125,-3.887001855323048,3.508705148799472,2.499458175768722,5
1538157423.215977,738,0,72038.466229125,-0.1389923095703125,4.742050170898438,-0.4393768310546875,72038.454635125,-4.562945695814894,3.603027923023463,2.805068960344655,5
1538157423.22114,739,0,72038.476018125,-0.311614990234375,5.754287719726562,-0.60321044921875,72038.474629125,-3.154621370274679,-2.099465761108706,2.866591177318794,5
1538157423.22888,740,0,72038.48584212501,-0.1342620849609375,4.9537353515625,-0.27276611328125,,,,,5
1538157423.239194,741,0,72038.495648125,0.330474853515625,3.432113647460938,0.601318359375,72038.49465012501,-0.6641337863217802,-6.196012055218023,3.0635274125563,5
1538157423.25196,742,0,72038.505454125,0.428466796875,2.693572998046875,0.9010162353515625,72038.50463312501,-1.159707585136957,-3.675766841876797,3.781089004035032,5
1538157423.298535,743,0,72038.515258125,0.2435760498046875,2.399581909179688,0.546905517578125,,,,,5
1538157423.299623,744,0,72038.52504012501,0.0511016845703125,2.015213012695312,0.3126220703125,72038.524670125,-1.806445070586122,-1.463846174262295,2.84047808388224,5
1538157423.300256,745,0,72038.534870125,0.0116729736328125,1.532424926757812,0.4117279052734375,,,,,5
1538157423.300847,746,0,72038.544673125,0.074066162109375,1.2313232421875,0.423675537109375,72038.53467012501,-0.9682172480125538,-1.653917312841796,2.517006010507362,5
1538157423.301491,747,0,72038.554449125,0.1324310302734375,0.982025146484375,0.3304290771484375,72038.544683125,0.003818440370955612,-1.125662000077493,2.443093436561631,5
1538157423.302595,748,0,72038.56428412501,0.1619873046875,0.8842315673828125,0.10906982421875,72038.554687125,0.6230470696562558,-0.2032553838720466,2.15909926423776,5
1538157423.312176,749,0,72038.57408812501,0.16937255859375,0.831787109375,-0.129425048828125,,,,,5
1538157423.32191,750,0,72038.58386912501,0.1595611572265625,0.7558135986328125,-0.2728271484375,72038.56469112501,0.7778566238225619,0.7621005638653261,1.537594697484879,5
1538157423.369508,751,0,72038.593697125,0.1242218017578125,0.6612396240234375,-0.292755126953125,72038.584703125,0.34012828178056,1.949972409110416,0.2339017101161334,5
1538157423.370846,752,0,72038.60350312501,0.08819580078125,0.5418243408203125,-0.2498931884765625,,,,,5
1538157423.371653,753,0,72038.61329912501,0.04278564453125,0.376800537109375,-0.217498779296875,72038.594690125,0.1032550165201162,2.16497819234411,-0.191002179696592,5
1538157423.372477,754,0,72038.623108125,-0.033111572265625,0.119140625,-0.1275482177734375,72038.61471912501,0.2572421865418059,2.49265353286746,-0.8098574337970631,5
1538157423.374001,755,0,72038.632914125,-0.076019287109375,-0.1378173828125,-0.0603790283203125,72038.624719125,0.7258195213868496,2.178621566608586,-1.015789827196857,5
1538157423.382271,756,0,72038.642714125,-0.1386566162109375,-0.379547119140625,-0.1015472412109375,72038.634731125,1.31667376715401,1.517870261187316,-1.063371727444976,5
1538157423.390467,757,0,72038.652502125,-0.1875,-0.6219024658203125,-0.207244873046875,72038.64473512501,1.904954866675935,0.2167405663677718,-1.052897514877694,5
1538157423.400339,758,0,72038.662329125,-0.2641143798828125,-0.8899688720703125,-0.3074188232421875,,,,,5
1538157423.412392,759,0,72038.672135125,-0.39910888671875,-1.047821044921875,-0.3238525390625,72038.654717125,2.342972428012319,-1.394340865604536,-1.066141947610876,5
1538157423.455146,760,0,72038.681941125,-0.5062408447265625,-1.062759399414062,-0.1932373046875,72038.67473512501,2.699726291846026,-3.506206038432542,-1.565509952031089,5
1538157423.455945,761,0,72038.691748125,-0.6258544921875,-0.9841766357421875,-0.0062408447265625,,,,,5
1538157423.456586,762,0,72038.701556125,-0.6439971923828125,-0.853057861328125,0.4632720947265625,72038.68474712501,2.34547153837925,-3.268079755879215,-2.145218602320158,5
1538157423.457716,763,0,72038.711362125,-0.4640655517578125,-0.6380615234375,0.7696533203125,72038.70476412501,0.3424074150414498,-0.06882806679255288,-2.509418930877836,5
1538157423.459236,764,0,72038.721168125,-0.2426300048828125,-0.3773193359375,0.6012420654296875,,,,,5
1538157423.469372,765,0,72038.73097612501,0.0157928466796875,-0.120880126953125,0.08209228515625,72038.71477212501,-1.302202682422737,3.619707567246738,-1.985016146946442,5
1538157423.479461,766,0,72038.74078212501,0.259063720703125,0.236480712890625,-0.3393707275390625,72038.734763125,-2.389329540475111,7.000727191266252,-0.4297369945590012,5
1538157423.491096,767,0,72038.75058412501,0.5264434814453125,0.843902587890625,-0.2571258544921875,,,,,5
1538157423.531838,768,0,72038.76039712501,0.6461181640625,1.41015625,0.1345367431640625,72038.744790125,-2.163027426845627,4.173777166773287,0.7700919113483269,5
1538157423.533983,769,0,72038.77020112501,0.3901824951171875,1.220550537109375,0.0397186279296875,72038.764780125,0.07200335376025435,-6.403039274141949,3.585120028905443,5
1538157423.534787,770,0,72038.779998125,0.121978759765625,1.216339111328125,-0.1842498779296875,,,,,5
1538157423.535471,771,0,72038.789812125,-0.0834503173828125,1.861602783203125,-0.33123779296875,72038.77480512501,2.189531738646314,-6.615131292826987,2.892423839892563,5
1538157423.537702,772,0,72038.79962012501,-0.301513671875,3.405746459960938,-0.8539276123046875,72038.794815125,3.725528006844927,-5.901740744247537,-0.8476450265041974,5
1538157423.547582,773,0,72038.809423125,-0.654510498046875,3.63458251953125,-0.5114898681640625,,,,,5
1538157423.561072,774,0,72038.81923212501,-1.016464233398438,2.672698974609375,-0.1468353271484375,72038.804821125,3.721526873623192,-5.893652191384748,-3.685095895175344,5
1538157423.615735,775,0,72038.829037125,-1.095932006835938,2.113204956054688,-0.5216064453125,72038.824819125,2.454877924385231,-0.7060831008643814,-3.407806497211858,5
1538157423.616707,776,0,72038.838825125,-0.683441162109375,1.854141235351562,-0.496612548828125,,,,,5
1538157423.61785,777,0,72038.848654125,-0.270263671875,1.7130126953125,-0.634796142578125,72038.834837125,1.011658199081708,0.7553790115900751,-2.00691079321631,5
1538157423.618866,778,0,72038.85844512501,0.05328369140625,1.603179931640625,-0.576171875,72038.854830125,-1.221309696943798,2.573800850230501,-2.915012505942506,5
1538157423.619439,779,0,72038.868241125,0.3603668212890625,1.730972290039062,-0.4034423828125,,,,,5
1538157423.620086,780,0,72038.87807412501,0.80792236328125,2.222625732421875,0.0275115966796875,72038.864843125,-1.545365268913512,3.79804721490833,-3.691470703876667,5
1538157423.625833,781,0,72038.88787012501,1.094772338867188,2.378585815429688,-0.2247772216796875,72038.88486412501,1.52143410335806,2.596770082000217,-3.743706744445808,5
1538157423.640854,782,0,72038.897683125,1.19403076171875,2.348281860351562,-0.37603759765625,,,,,5
1538157423.648547,783,0,72038.90747612501,1.294906616210938,2.462417602539062,-0.2410736083984375,72038.89486912501,2.824296717098918,1.927625025455235,-3.246929196817915,5
1538157423.70924,784,0,72038.91730312501,1.385513305664062,2.47210693359375,0.059967041015625,72038.914879125,3.815053895313467,0.4575116341996556,-3.119185615126193,5
1538157423.710377,785,0,72038.927111125,1.1470947265625,2.127197265625,0.45794677734375,72038.92485712501,3.720376920664496,0.2047068066661397,-2.913687316984082,5
1538157423.711471,786,0,72038.936919125,0.6087493896484375,1.574859619140625,0.8220977783203125,,,,,5
1538157423.712411,787,0,72038.946696125,0.17877197265625,1.214218139648438,0.849609375,72038.94489512501,2.425627893500673,1.301375770904267,-2.08494993527112,5
1538157423.712945,788,0,72038.95653012501,-0.148834228515625,1.091781616210938,0.5239715576171875,,,,,5
1538157423.713532,789,0,72038.966336125,-0.34356689453125,1.03564453125,0.1657867431640625,72038.954889125,1.556995293393888,1.348412255761138,-1.86086969693909,5
1538157423.715105,790,0,72038.97614112501,-0.4428863525390625,0.9720001220703125,0.0138092041015625,72038.974911125,1.02086794276342,0.1677213580793373,-1.622030219845841,5
1538157423.724165,791,0,72038.985950125,-0.43597412109375,0.8300018310546875,0.062835693359375,,,,,5
1538157423.771867,792,0,72038.995757125,-0.3317413330078125,0.5775146484375,0.2414093017578125,72038.984887125,0.9461540236456834,-0.1920328230384526,-1.632880204442933,5
1538157423.773033,793,0,72039.005561125,-0.2015838623046875,0.32574462890625,0.4026947021484375,72039.004927125,0.289678955986753,-0.2550546660224148,-1.239585107292249,5
1538157423.775296,794,0,72039.015356125,-0.0447235107421875,0.1091766357421875,0.429107666015625,,,,,5
1538157423.776022,795,0,72039.02515112501,0.1408843994140625,-0.0756988525390625,0.37127685546875,72039.01493412501,-0.2940912812807962,-0.2912076104524584,-1.044989524336813,5
