loggingTime,loggingSample,identifierForVendor,accelerometerTimestamp_sinceReboot,accelerometerAccelerationX,accelerometerAccelerationY,accelerometerAccelerationZ,gyroTimestamp_sinceReboot,gyroRotationX,gyroRotationY,gyroRotationZ,label
1538158452.057402,1,0,73067.27563250001,-0.0147552490234375,-0.5982208251953125,-0.74200439453125,73067.26798650001,0.1720380758902467,0.773356680528655,-0.007240336055598425,2
1538158452.058548,2,0,73067.2854085,0.01092529296875,-0.601104736328125,-0.7551116943359375,73067.28799750001,0.1946307366818249,0.7886448230823639,-0.1989083060247102,2
1538158452.05929,3,0,73067.29523850001,0.0196685791015625,-0.6415863037109375,-0.7249755859375,,,,,2
1538158452.060105,4,0,73067.30504050001,0.0615081787109375,-0.6533966064453125,-0.7447052001953125,73067.29800550001,0.1310717341059938,0.8184304156621371,-0.3159198811556307,2
1538158452.06105,5,0,73067.31481550001,0.101287841796875,-0.6591949462890625,-0.7911529541015625,73067.31801650001,0.1707917165000896,0.2389449382724164,-0.329274036125724,2
1538158452.061591,6,0,73067.3246455,0.10614013671875,-0.677734375,-0.8143310546875,,,,,2
1538158452.062206,7,0,73067.3344475,0.12567138671875,-0.68756103515625,-0.7889251708984375,73067.32801550001,0.09214004739456148,-0.2008100693591358,-0.2671115952255305,2
1538158452.062838,8,0,73067.3442455,0.11175537109375,-0.6953887939453125,-0.7315826416015625,73067.3480365,-0.08152628518615969,-0.5407460709089921,-0.2024108954903824,2
1538158452.063202,9,0,73067.35405150001,0.036102294921875,-0.688201904296875,-0.6852874755859375,,,,,2
1538158452.064074,10,0,73067.3638545,-0.0270538330078125,-0.6675567626953125,-0.65185546875,73067.3580435,-0.0678275171710101,-0.3831005164978605,-0.1320677563536835,2
1538158452.075708,11,0,73067.37365150001,-0.0496063232421875,-0.652557373046875,-0.6405181884765625,73067.3680495,0.08623155820011169,-0.1469923774185965,-0.05874400732496784,2
1538158452.090518,12,0,73067.38345950001,-0.0486297607421875,-0.684295654296875,-0.688720703125,73067.37805350001,0.3325361421449621,0.05575008162750076,-0.03323571777197087,2
1538158452.120262,13,0,73067.39326350001,-0.03619384765625,-0.6911773681640625,-0.7243804931640625,73067.3880625,0.5637214279492146,0.1791857339399104,0.02254632178861083,2
1538158452.121138,14,0,73067.40306350001,0.0070037841796875,-0.6822357177734375,-0.7985687255859375,,,,,2
1538158452.121938,15,0,73067.41287150001,0.0347442626953125,-0.693450927734375,-0.9113006591796875,73067.4080695,0.5513329351903841,-0.06571163568494215,0.2884951808822127,2
1538158452.122974,16,0,73067.42264650001,0.027923583984375,-0.6719970703125,-0.88726806640625,73067.4180815,0.2721180717587705,-0.5676021862896781,0.3906215497323534,2
1538158452.133042,17,0,73067.4324755,-0.02032470703125,-0.6168060302734375,-0.844970703125,,,,,2
1538158452.149748,18,0,73067.4422795,-0.043212890625,-0.4759674072265625,-0.7852783203125,73067.4380905,-0.989734524355958,-1.362992796413213,0.3527601874630238,2
1538158452.162021,19,0,73067.45206550001,-0.0517730712890625,-0.382568359375,-0.6987152099609375,73067.4481005,-1.572190225309444,-1.691977080612336,0.0647789966711964,2
1538158452.16253,20,0,73067.46186350001,-0.0499725341796875,-0.4462890625,-0.6269989013671875,,,,,2
1538158452.198797,21,0,73067.47169050001,-0.0548095703125,-0.5008544921875,-0.554107666015625,73067.4680885,-1.716261913960551,-1.716816916731723,-0.8442926393240056,2
1538158452.199565,22,0,73067.48146350001,-0.0796356201171875,-0.548980712890625,-0.5453033447265625,73067.4781185,-1.266510464861277,-1.398548127494643,-1.184088292284415,2
1538158452.199948,23,0,73067.4912955,-0.147613525390625,-0.6155242919921875,-0.6368408203125,,,,,2
1538158452.209883,24,0,73067.50109650001,-0.1282196044921875,-0.6192169189453125,-0.7498626708984375,73067.4981155,0.2878509622145226,-0.1289832831791537,-1.626251063857508,2
1538158452.220983,25,0,73067.51087750001,-0.03228759765625,-0.582366943359375,-0.7595367431640625,73067.50813850001,1.51370028355247,0.4341386672086841,-1.821418161182874,2
1538158452.22176,26,0,73067.5206995,0.06842041015625,-0.6165313720703125,-0.744476318359375,,,,,2
1538158452.232266,27,0,73067.5304955,0.2261505126953125,-0.60833740234375,-0.653717041015625,73067.52813250001,3.559866071236548,1.475135314123141,-1.188155471901184,2
1538158452.279939,28,0,73067.5402895,0.293487548828125,-0.645477294921875,-0.6000518798828125,73067.53815750001,3.738501862411357,1.916316178202322,-0.4736408030256115,2
1538158452.280593,29,0,73067.5501125,0.2255859375,-0.7535858154296875,-0.5879974365234375,,,,,2
1538158452.281162,30,0,73067.55990550001,0.17950439453125,-0.7489471435546875,-0.57342529296875,73067.54814150001,3.269660874618395,2.430266321171264,0.1463212608238966,2
1538158452.28189,31,0,73067.5697185,0.19146728515625,-0.668670654296875,-0.5943756103515625,73067.55814550001,2.534137859483733,2.522153101946159,0.533380832598269,2
1538158452.282471,32,0,73067.5795065,0.1784820556640625,-0.651885986328125,-0.6356201171875,73067.56817550001,1.716882430494539,2.050128837702225,0.7384453017988063,2
1538158452.289875,33,0,73067.58930250001,0.141448974609375,-0.658538818359375,-0.720458984375,73067.57818350001,0.8474519473251666,1.328088075586089,0.9853403085573272,2
1538158452.301479,34,0,73067.59911750001,0.1284027099609375,-0.636962890625,-0.7456817626953125,73067.58818750001,-0.07863675540342371,0.4345938014389786,1.278757277450115,2
1538158452.308794,35,0,73067.60892150001,0.0977020263671875,-0.6099853515625,-0.698699951171875,73067.59817550001,-1.054583029531605,-0.6970802847993686,1.511654443203071,2
1538158452.318703,36,0,73067.61872550001,0.0089874267578125,-0.646881103515625,-0.7908782958984375,73067.6082035,-1.960741699926479,-1.660732608387417,1.670487767460378,2
1538158452.356839,37,0,73067.6285285,0.0501251220703125,-0.5683746337890625,-0.87005615234375,73067.61820750001,-2.698548109379775,-2.090562280952354,1.731145788660786,2
1538158452.357584,38,0,73067.63833250001,0.0879058837890625,-0.3365631103515625,-0.8195648193359375,73067.6281875,-2.753525341658935,-1.933684249567383,1.58769648075643,2
1538158452.358317,39,0,73067.6481355,0.030548095703125,-0.238677978515625,-0.9125518798828125,73067.6382225,-2.084971240559841,-1.714746841616405,1.309490689061848,2
1538158452.360163,40,0,73067.65793650001,0.016021728515625,-0.2934417724609375,-0.809478759765625,73067.64822650001,-1.036151824259385,-1.36229558083983,0.9148477660834748,2
1538158452.367972,41,0,73067.6677545,-0.0031585693359375,-0.3948211669921875,-0.477142333984375,73067.65823650001,0.1366297513009892,-1.023252270887368,0.5727189176920473,2
1538158452.377756,42,0,73067.6775585,0.0116119384765625,-0.4932861328125,-0.12274169921875,73067.66824150001,1.213890130146837,-0.2318473476512463,0.3849689903186602,2
1538158452.389746,43,0,73067.6873605,0.050445556640625,-0.5674285888671875,0.0135498046875,73067.67824550001,1.735392997967244,1.373318670907777,0.3931776517466114,2
1538158452.397414,44,0,73067.69716350001,0.1085357666015625,-0.7078399658203125,-0.2690582275390625,73067.6882455,1.708841814531372,3.249911404606586,0.5833835462772696,2
1538158452.407066,45,0,73067.7069475,0.0202789306640625,-0.81866455078125,-0.39385986328125,73067.6982595,1.425144850985155,4.20629835842479,0.9696484307823624,2
1538158452.437015,46,0,73067.71676750001,-0.205780029296875,-0.837738037109375,-0.4105224609375,73067.70826350001,1.113543818169306,4.318737552280154,1.430155055943921,2
1538158452.43829,47,0,73067.72657350001,-0.2068023681640625,-0.7396087646484375,-0.5054168701171875,73067.7182435,0.8800857906907795,4.235465298683338,1.720326164100121,2
1538158452.439031,48,0,73067.7363665,0.0322265625,-0.4876556396484375,-0.4457855224609375,73067.7382585,0.7358899987328753,2.771549083284373,0.2957174074423986,2
1538158452.446514,49,0,73067.74618050001,0.017181396484375,-0.28271484375,-0.2829132080078125,,,,,2
1538158452.456466,50,0,73067.7559815,0.138397216796875,0.0815582275390625,-0.1905975341796875,73067.74827350001,0.9370481432464844,2.645556796325487,-1.722472671938724,2
1538158452.467644,51,0,73067.7657555,-0.0125885009765625,-0.0024871826171875,-0.086761474609375,73067.76830150001,1.589714357914384,5.783421290705279,-4.802574800171351,2
1538158452.4758,52,0,73067.77558850001,-0.000640869140625,-0.1515045166015625,0.113128662109375,,,,,2
1538158452.485537,53,0,73067.7853785,0.248077392578125,-0.0634002685546875,0.41473388671875,73067.77830250001,2.253419375300661,6.541750552150943,-5.039065635499259,2
1538158452.516784,54,0,73067.79516950001,0.4812164306640625,0.0710601806640625,0.542449951171875,73067.78831650001,3.201727896268218,7.627764208867664,-4.670977890698394,2
1538158452.517644,55,0,73067.8049995,0.6931915283203125,0.2449188232421875,0.488372802734375,73067.79832050001,4.337073949017567,8.586475569685289,-4.165766910846547,2
1538158452.524784,56,0,73067.8147995,0.78643798828125,0.3145751953125,0.19830322265625,73067.8083015,5.54314823399724,8.892373709342843,-3.927689364141169,2
1538158452.528522,57,0,73067.82459650001,0.80633544921875,0.2521820068359375,-0.1015777587890625,73067.82834050001,7.716812326236644,8.04389271657247,-4.830256229173853,2
1538158452.535237,58,0,73067.8343975,0.776702880859375,0.2410888671875,-0.2726593017578125,,,,,2
1538158452.5427,59,0,73067.84419650001,0.7035980224609375,0.4029083251953125,-0.347137451171875,,,,,2
1538158452.553825,60,0,73067.85399250001,0.7874603271484375,0.588897705078125,-0.3331146240234375,73067.83834250001,8.206761528829574,7.111439591470808,-5.620531173159454,2
1538158452.564136,61,0,73067.8638145,0.9619140625,0.6644287109375,-0.201690673828125,73067.85832850001,7.896328025835615,4.677936197994553,-6.787045798042654,2
1538158452.59727,62,0,73067.87361750001,1.109344482421875,0.649200439453125,-0.0579986572265625,,,,,2
1538158452.598005,63,0,73067.88342150001,1.297988891601562,0.6041259765625,-0.0494537353515625,73067.8683665,7.345557017635238,3.169648256725451,-7.367374698549603,2
1538158452.599079,64,0,73067.8932245,1.572021484375,0.4889984130859375,-0.0027618408203125,73067.88836750001,5.837847248638792,0.6625097906890499,-8.66281241917132,2
1538158452.603271,65,0,73067.9030265,1.701919555664062,0.31298828125,0.1480865478515625,,,,,2
1538158452.614954,66,0,73067.9128295,1.906265258789062,0.1768646240234375,0.194580078125,73067.8983845,5.110622643460816,-0.2881604215331898,-9.191602228366401,2
1538158452.622829,67,0,73067.9226305,2.00048828125,0.0366973876953125,0.2472076416015625,73067.9183755,3.843920963633272,-0.4892637049283433,-8.855733939065532,2
1538158452.637755,68,0,73067.93241150001,2.116409301757812,-0.091033935546875,0.28936767578125,73067.92840450001,3.506416960790876,-0.4179722141274671,-7.763359588401267,2
1538158452.646927,69,0,73067.9422375,2.117446899414062,-0.263092041015625,0.3538665771484375,,,,,2
1538158452.679143,70,0,73067.95204050001,2.1170654296875,-0.517242431640625,0.456298828125,73067.94840550001,3.849603616767283,0.07112024954278408,-4.71307074962375,2
1538158452.67985,71,0,73067.9618305,2.167449951171875,-0.693756103515625,0.519439697265625,73067.95842350001,4.372457239892578,0.2483245916316755,-3.463505978778647,2
1538158452.680304,72,0,73067.9716475,2.135040283203125,-0.6659393310546875,0.566314697265625,,,,,2
1538158452.685343,73,0,73067.9814495,2.078720092773438,-0.4507598876953125,0.5380706787109375,73067.97843450001,4.860257271485813,-0.7101087351681452,-2.370920439439938,2
1538158452.695269,74,0,73067.99124650001,1.966934204101562,-0.2884521484375,0.5383453369140625,73067.98844250001,4.341677489277878,-1.835442367483232,-2.352869267255272,2
1538158452.701276,75,0,73068.0010565,1.860549926757812,-0.2444915771484375,0.6666107177734375,,,,,2
1538158452.711534,76,0,73068.0108375,1.746322631835938,-0.2827606201171875,0.82403564453125,73068.00845350001,2.041171295375744,-3.28938211512265,-2.417742273512948,2
1538158452.721952,77,0,73068.02063850001,1.614303588867188,-0.2582855224609375,0.8794097900390625,73068.01846250001,0.8944418268629607,-2.923152191498224,-2.234070444716799,2
1538158452.758734,78,0,73068.03046550001,1.556640625,-0.2012176513671875,0.7940521240234375,,,,,2
1538158452.759574,79,0,73068.0402705,1.582138061523438,-0.27508544921875,0.614349365234375,73068.03847350001,-0.09513770151755467,-1.93633995380641,-1.692253250417377,2
1538158452.760723,80,0,73068.050024375,1.619461059570312,-0.3529052734375,0.28717041015625,73068.0484805,0.07847376994471086,-1.692980559711078,-1.395034619068501,2
1538158452.761208,81,0,73068.05983337501,2.012481689453125,-0.43939208984375,0.189910888671875,,,,,2
1538158452.76984,82,0,73068.069638375,2.304336547851562,-0.5015411376953125,0.6621551513671875,73068.05844937501,1.338972414961243,-2.309716470216064,-1.096197052092966,2
1538158452.783089,83,0,73068.079436375,2.1611328125,-0.4834442138671875,1.085525512695312,73068.07846037501,-2.157829469030011,-5.393478048102568,0.9410796365046463,2
1538158452.789177,84,0,73068.089219375,1.581832885742188,-0.029876708984375,1.110061645507812,,,,,2
1538158452.799357,85,0,73068.09904837501,1.266159057617188,0.050689697265625,0.9647216796875,73068.08846737501,-3.769903194824482,-5.601976397212654,1.136017169344048,2
1538158452.810498,86,0,73068.108824375,1.0069580078125,0.4351806640625,0.809356689453125,73068.09847137501,-3.781809655426008,-5.626748056408135,0.7290712410778364,2
1538158452.839854,87,0,73068.118655375,0.7113800048828125,0.739501953125,0.5695648193359375,,,,,2
1538158452.841258,88,0,73068.128447375,0.6714630126953125,0.680633544921875,0.4409637451171875,73068.11848637501,-1.99279071311671,-2.780062942973248,0.5875226312434708,2
1538158452.841984,89,0,73068.138240375,0.9390869140625,0.4676361083984375,0.2180633544921875,73068.12849037501,-0.5980655533668765,-0.9226399091169377,0.3801052592198484,2
1538158452.848342,90,0,73068.148065375,1.075790405273438,0.3914031982421875,-7.62939453125e-05,73068.138492375,0.3047151635013403,0.4631431546407371,0.07955607861171907,2
1538158452.85774,91,0,73068.15786637501,1.154342651367188,0.34991455078125,-0.1029510498046875,73068.14850537501,0.831602943045887,0.9432612980696393,-0.06887946580159141,2
1538158452.86836,92,0,73068.16766237501,1.155258178710938,0.1570892333984375,-0.1031341552734375,73068.158509375,1.099213880975807,0.9272953810185052,-0.1778906387018049,2
1538158452.878185,93,0,73068.17745837501,1.075942993164062,0.0325164794921875,-0.1293182373046875,73068.16849137501,1.075499496733088,0.3552584988816271,-0.3144801762703339,2
1538158452.887242,94,0,73068.18725437501,0.935943603515625,0.0155487060546875,-0.058258056640625,73068.178523375,0.7990394071330522,-0.09527006062373161,-0.5270251986567948,2
1538158452.921114,95,0,73068.197080375,0.833099365234375,-0.0440826416015625,-0.05401611328125,73068.18852737501,0.647522052706302,-0.2779474650688449,-0.5570398230903149,2
1538158452.921947,96,0,73068.206871375,0.8300323486328125,-0.021026611328125,-0.1241607666015625,73068.198509375,0.5255455463551468,-0.09311369908909445,-0.5415652592603004,2
1538158452.922498,97,0,73068.21666237501,0.84979248046875,-0.0075836181640625,-0.1660003662109375,73068.208543375,0.4104932588381976,-0.07531632615631292,-0.455509736008243,2
1538158452.927344,98,0,73068.22647337501,0.8400115966796875,-0.023529052734375,-0.2450103759765625,73068.218547375,0.1788504419586694,-0.3809825044829205,-0.3586311260861035,2
1538158452.938922,99,0,73068.236278375,0.8933563232421875,0.057708740234375,-0.250152587890625,73068.22854937501,-0.07100466835147463,-0.5912052503988324,-0.2690487786024541,2
1538158452.947225,100,0,73068.246092375,0.8557586669921875,0.2369842529296875,-0.2884674072265625,73068.23856137501,0.001111070806781058,-0.6072486654376877,-0.1573800372504506,2
1538158452.957241,101,0,73068.25588537501,0.7808074951171875,0.3624420166015625,-0.3201141357421875,73068.248565375,0.1153580184100903,-0.4287873113142789,-0.1266503540642443,2
1538158452.967386,102,0,73068.26571437501,0.725433349609375,0.3694305419921875,-0.109710693359375,73068.258548375,0.3137518017121972,-0.1741062867928023,-0.1105470179008622,2
1538158453.000826,103,0,73068.27551237501,0.791107177734375,0.1903533935546875,0.0284576416015625,73068.268581375,0.5939935800601454,0.6058323963699837,-0.0858288882432917,2
1538158453.00156,104,0,73068.28530637501,0.8963470458984375,0.12982177734375,0.0748443603515625,73068.27858537501,0.5768220499835325,1.296423090225047,-0.1061075283637001,2
1538158453.00215,105,0,73068.29511037501,1.024749755859375,0.10797119140625,0.030029296875,73068.288577375,0.3407919415242077,1.895672152380355,-0.1513841963722462,2
1538158453.007023,106,0,73068.304915375,1.264984130859375,0.2574005126953125,-0.10040283203125,73068.298600375,0.1528393475918655,2.332991432878921,-0.2674040103132212,2
1538158453.015891,107,0,73068.31470637501,1.451858520507812,0.45916748046875,-0.03515625,73068.30860437501,-0.05329038604470357,2.510048235843422,-0.4189471974025451,2
1538158453.025976,108,0,73068.324520375,1.37469482421875,0.3572845458984375,-0.21014404296875,73068.318611375,-0.2905189169945639,2.770977036282224,-0.5671771457797015,2
1538158453.036857,109,0,73068.334334375,1.233062744140625,-0.223846435546875,-0.41387939453125,73068.328618375,-0.5065444246096494,2.189217219321576,-0.7365637784886653,2
1538158453.045706,110,0,73068.344143375,1.3253173828125,0.524200439453125,-0.049774169921875,73068.338622375,-0.1739156044587526,0.9723131897690956,-0.8188424066827724,2
1538158453.078626,111,0,73068.35394837501,1.166976928710938,0.593048095703125,-0.15875244140625,73068.34863037501,-0.4780725693956123,0.6691956566056939,-0.7994402128771091,2
1538158453.079237,112,0,73068.363751375,1.014572143554688,0.539581298828125,-0.2159271240234375,,,,,2
1538158453.079803,113,0,73068.373557375,0.896636962890625,0.6931915283203125,-0.08782958984375,73068.368623375,-0.7787972523195779,0.06257469823693781,-0.6626528024395872,2
1538158453.084999,114,0,73068.38336037501,0.650177001953125,0.837249755859375,0.213653564453125,73068.37864937501,-0.5386578862982609,0.6385424061427728,-0.5473144914215635,2
1538158453.093541,115,0,73068.39315637501,0.49346923828125,0.8892822265625,0.0653839111328125,,,,,2
1538158453.103142,116,0,73068.40296637501,0.5185089111328125,0.8934326171875,0.0728302001953125,73068.398651375,0.1761697040053957,1.549520599162363,-0.5542858482070639,2
1538158453.112724,117,0,73068.41276937501,0.641998291015625,0.7537078857421875,0.1813812255859375,73068.40866837501,0.2854088434949199,1.423568259619828,-0.753594161027504,2
1538158453.12285,118,0,73068.422574375,0.7384490966796875,0.5186004638671875,0.217315673828125,,,,,2
1538158453.159723,119,0,73068.43237937501,0.8300628662109375,0.3124237060546875,0.1862640380859375,73068.428650375,-0.04130243271382089,1.272822156644765,-1.512295732393562,2
1538158453.16054,120,0,73068.442167375,0.7767181396484375,0.2671966552734375,0.116668701171875,73068.438688375,-0.3111754596736546,0.8798791293901894,-2.176965346726666,2
1538158453.16097,121,0,73068.451986375,0.686126708984375,0.326751708984375,0.10943603515625,,,,,2
1538158453.163029,122,0,73068.46179137501,0.6806182861328125,0.4206390380859375,0.1699066162109375,73068.458680375,-0.5520898055721846,-0.3513311352220873,-3.570218044709795,2
1538158453.173135,123,0,73068.471586375,0.6817779541015625,0.528289794921875,0.195953369140625,73068.468706375,-0.3618330446647058,-0.4434040709571788,-4.379465081985012,2
1538158453.181673,124,0,73068.48139837501,0.6728057861328125,0.631256103515625,0.169677734375,,,,,2
1538158453.193623,125,0,73068.49119837501,0.563201904296875,0.4624786376953125,0.0470123291015625,73068.48871837501,0.294924850701991,-0.3430143494538789,-6.08143594090398,2
1538158453.202513,126,0,73068.50099337501,0.365997314453125,0.2930145263671875,-0.1101837158203125,73068.49872637501,0.4034902104357252,-0.7634694286656268,-6.347795725753781,2
1538158453.238092,127,0,73068.51080637501,0.2597503662109375,0.2405853271484375,-0.078369140625,,,,,2
1538158453.238984,128,0,73068.520609375,0.310943603515625,0.39019775390625,0.0007781982421875,73068.518736375,0.5544999663587062,-1.187421771020867,-5.919006550226738,2
1538158453.239509,129,0,73068.530405375,0.4282073974609375,0.6039581298828125,0.045654296875,73068.528744375,0.8095162828614239,-0.6891001225929461,-5.702778109736589,2
1538158453.244381,130,0,73068.540215375,0.5110626220703125,0.8299560546875,0.028961181640625,,,,,2
1538158453.250251,131,0,73068.550018375,0.50042724609375,0.92578125,-0.085357666015625,73068.54873737501,1.812383919816999,0.6109262245869782,-5.732093121751745,2
1538158453.261279,132,0,73068.559815375,0.5001983642578125,0.97125244140625,-0.177520751953125,,,,,2
1538158453.269736,133,0,73068.569624375,0.527130126953125,1.027130126953125,-0.239654541015625,73068.558764375,2.357455230652389,0.572875777880253,-5.799737413439758,2
1538158453.279578,134,0,73068.579428375,0.5200958251953125,1.079727172851562,-0.2404632568359375,73068.568770375,2.845084287303641,0.1497839028732176,-5.978018471557369,2
1538158453.333634,135,0,73068.58923137501,0.50433349609375,1.10797119140625,-0.090850830078125,73068.57877437501,3.190078697027994,-0.5658048188699837,-6.367594197929648,2
1538158453.335064,136,0,73068.599034375,0.36993408203125,1.003448486328125,-0.2175750732421875,73068.588779375,2.81114815816498,-1.552331299376832,-6.726330518878809,2
1538158453.335793,137,0,73068.608838375,0.2422637939453125,0.92156982421875,-0.204864501953125,73068.59877537501,2.186941015537885,-2.436635004602079,-6.81771902221375,2
1538158453.341467,138,0,73068.618640375,0.1282958984375,0.8932342529296875,-0.055694580078125,73068.608779375,1.708483353048647,-2.908977782912386,-6.626227087192693,2
1538158453.342572,139,0,73068.628445375,0.02520751953125,0.837890625,0.0456390380859375,73068.618779375,1.58259359779173,-2.377378072451162,-6.270314782263451,2
1538158453.343643,140,0,73068.63824837501,-0.0623016357421875,0.8726043701171875,-0.0690460205078125,73068.628786375,1.809513032161893,-0.6569049018588692,-5.715143699310045,2
1538158453.350339,141,0,73068.64805237501,-0.1060333251953125,0.90631103515625,-0.2479705810546875,73068.638790375,2.1412049522413,1.195770248406047,-4.959582527501409,2
1538158453.358228,142,0,73068.657855375,-0.1563873291015625,0.949554443359375,-0.44171142578125,73068.64880737501,2.222209790486022,2.562901863469352,-4.172046112064736,2
1538158453.367447,143,0,73068.66763137501,-0.2301025390625,1.131805419921875,-0.619476318359375,73068.65880437501,1.882193894103464,3.213899874030425,-3.402626648891654,2
1538158453.408673,144,0,73068.677461375,-0.323577880859375,1.319808959960938,-0.745849609375,73068.66880837501,1.024951633978948,3.145899517704669,-2.621389941013563,2
1538158453.410588,145,0,73068.68726437501,-0.2770843505859375,1.129547119140625,-0.6873016357421875,73068.67883637501,-0.3193391136791834,2.190167701514625,-1.828890458569419,2
1538158453.411394,146,0,73068.69705037501,-0.3609619140625,1.546142578125,-0.4191436767578125,73068.69883537501,-2.242140888084176,-0.2188716278720532,-0.4272858210916922,2
1538158453.41188,147,0,73068.706870375,-0.6109161376953125,3.332305908203125,0.0251007080078125,,,,,2
1538158453.419559,148,0,73068.71667337501,-0.550994873046875,4.989028930664062,0.5565185546875,73068.70883437501,-2.910073940017063,-0.4916182056480823,0.4927439238408588,2
1538158453.43013,149,0,73068.72646837501,-0.4599151611328125,4.277084350585938,0.3425445556640625,73068.718842375,-3.005834288597478,0.7605588599102793,1.470050540653853,2
1538158453.439539,150,0,73068.736265375,-0.4956512451171875,2.510299682617188,0.2192230224609375,73068.728846375,-2.554890275962067,0.9996201783223322,1.901197412693942,2
1538158453.4472,151,0,73068.74606037501,-0.4837493896484375,1.3681640625,0.2557220458984375,73068.73886337501,-2.363404732527625,-0.3835679012691695,1.72282820394425,2
1538158453.491889,152,0,73068.75585837501,-0.47198486328125,0.9034881591796875,0.2961578369140625,73068.74887737501,-2.441711788588097,-1.692164567153078,1.562442523087536,2
1538158453.494358,153,0,73068.765684375,-0.4307098388671875,0.78863525390625,0.338134765625,73068.758881375,-2.516782038659687,-2.504510991304929,1.485732032100567,2
1538158453.495332,154,0,73068.77547937501,-0.3192291259765625,0.912322998046875,0.3177490234375,73068.76889637501,-2.573064219872986,-2.611597497685342,1.491286587186145,2
1538158453.496097,155,0,73068.785275375,-0.1595916748046875,1.025711059570312,0.25469970703125,73068.77887337501,-2.583618859905187,-2.153517811225173,1.57723798083958,2
1538158453.497249,156,0,73068.795073375,-0.0622100830078125,1.050811767578125,0.2067413330078125,73068.788877375,-2.493041555438285,-1.633279944922554,1.740473244062679,2
1538158453.506902,157,0,73068.804896375,0.0005340576171875,1.043533325195312,0.134033203125,73068.79889237501,-2.306264480811103,-1.206588807702276,1.890480586151354,2
1538158453.516227,158,0,73068.81469537501,0.06805419921875,1.0828857421875,-0.041412353515625,73068.80891937501,-1.977952644787225,-0.8222967929327142,2.055042902545639,2
1538158453.561606,159,0,73068.82449137501,0.142425537109375,1.009384155273438,-0.3236541748046875,73068.818923375,-1.44950212231502,-0.6937404144763002,2.35249935417986,2
1538158453.566332,160,0,73068.834288375,0.1286163330078125,0.88433837890625,-0.6032257080078125,73068.82893437501,-0.7825443199733194,-1.134275728307246,2.739821513637714,2
1538158453.567069,161,0,73068.844100375,0.0355072021484375,0.887664794921875,-0.81060791015625,,,,,2
1538158453.567813,162,0,73068.85391437501,-0.0540924072265625,0.9058837890625,-0.933135986328125,73068.84893737501,0.3267363099229875,-2.567602076477233,2.83547427051009,2
1538158453.568765,163,0,73068.86369537501,-0.131591796875,0.874755859375,-0.9534912109375,73068.858952375,0.6708742470407708,-3.042082041562328,2.473912335644354,2
1538158453.57404,164,0,73068.873496375,-0.1339874267578125,0.89007568359375,-0.828125,,,,,2
1538158453.582961,165,0,73068.88331637501,-0.0689239501953125,0.996490478515625,-0.5209197998046875,73068.868932375,0.8688861330425603,-3.03666437295678,2.136016315489499,2
1538158453.593658,166,0,73068.893126375,0.010498046875,1.119857788085938,-0.1438446044921875,73068.888972375,0.1575835027577326,-2.300733361543118,2.521684119278196,2
1538158453.606606,167,0,73068.902926375,0.10968017578125,1.274429321289062,0.1402130126953125,,,,,2
1538158453.636537,168,0,73068.912732375,0.2162322998046875,1.400100708007812,0.2122039794921875,73068.908983375,-2.173566087911289,0.7071608821575365,3.307331554553675,2
1538158453.642649,169,0,73068.92252237501,0.2882537841796875,1.364593505859375,0.13531494140625,73068.91899037501,-3.217379293994614,2.672511981298725,3.507752003445333,2
1538158453.643742,170,0,73068.93233937501,0.294769287109375,1.153335571289062,0.06890869140625,,,,,2
1538158453.64439,171,0,73068.942142375,0.290618896484375,0.886810302734375,0.20343017578125,73068.939000375,-4.917767702593856,3.525847916736312,3.177056904561943,2
1538158453.657252,172,0,73068.95194737501,0.1951751708984375,0.63299560546875,0.6710205078125,73068.94900937501,-4.824013779578707,3.083713640986883,2.735971381649787,2
1538158453.662032,173,0,73068.961761375,-0.0078582763671875,0.5629119873046875,0.6305694580078125,,,,,2
1538158453.674089,174,0,73068.971565375,-0.0893707275390625,0.5958404541015625,0.3169097900390625,73068.958988375,-3.257717129761608,2.473112055736785,2.422055529214441,2
1538158453.681612,175,0,73068.98135237501,-0.1453704833984375,0.64398193359375,0.1764373779296875,73068.968992375,-1.513438761133424,1.029210294878093,2.321857821625735,2
1538158453.6933,176,0,73068.991169375,-0.1565093994140625,0.6807403564453125,0.090911865234375,73068.979029375,-0.5082211508319633,-0.0472047966377635,2.33385323180767,2
1538158453.724113,177,0,73069.00096637501,-0.12921142578125,0.6986541748046875,-0.0535430908203125,73068.98902037501,-0.1778746597352644,-0.3389314571866784,2.363936299481205,2
1538158453.72578,178,0,73069.010753375,-0.0167236328125,0.7281494140625,-0.150421142578125,73069.00904837501,-0.8257956539728603,0.05486617846170345,2.336223977810059,2
1538158453.726665,179,0,73069.02057937501,0.158294677734375,0.770721435546875,-0.1184234619140625,,,,,2
1538158453.730754,180,0,73069.030386375,0.31011962890625,0.7996673583984375,-0.017364501953125,73069.019055375,-1.38236436386634,0.2901561944540951,2.268019623344802,2
1538158453.743027,181,0,73069.040184375,0.4101104736328125,0.7802886962890625,0.140380859375,73069.02905937501,-1.766532275329104,0.421902507264206,2.140562864102482,2
1538158453.750284,182,0,73069.049992375,0.406280517578125,0.7407073974609375,0.2911376953125,73069.03906737501,-1.884041595267761,0.4292198086753078,1.998661119107572,2
1538158453.759989,183,0,73069.05979537501,0.349822998046875,0.644500732421875,0.405517578125,73069.04904737501,-1.74357902252593,0.4690383280297365,1.829326684355974,2
1538158453.797253,184,0,73069.069599375,0.266387939453125,0.5335235595703125,0.42352294921875,73069.05905137501,-1.457328620126545,0.6349221049569191,1.646688961011103,2
1538158453.808214,185,0,73069.079403375,0.2450103759765625,0.4352874755859375,0.392242431640625,73069.069070375,-1.247051812040504,1.008772397724498,1.458514259443848,2
1538158453.809894,186,0,73069.089205375,0.19488525390625,0.3799591064453125,0.3369903564453125,73069.08909737501,-1.080929682195759,1.425260165860355,1.046883298187968,2
1538158453.810849,187,0,73069.09900837501,0.2275543212890625,0.3265838623046875,0.3180694580078125,,,,,2
1538158453.811348,188,0,73069.10881237501,0.2577362060546875,0.2804107666015625,0.289276123046875,73069.099103375,-1.056016342830286,1.444651440705549,0.8392262416662388,2
1538158453.818964,189,0,73069.11858937501,0.22540283203125,0.293365478515625,0.244293212890625,73069.119117375,-0.8781454115205478,0.8552006808328612,0.4235496723984201,2
1538158453.828267,190,0,73069.12841637501,0.2804107666015625,0.288818359375,0.2452239990234375,,,,,2
1538158453.839356,191,0,73069.13822237501,0.2933502197265625,0.272491455078125,0.2197418212890625,73069.12912337501,-0.7433244792319404,0.5628724121936974,0.2502588455314,2
1538158453.849766,192,0,73069.14800837501,0.298095703125,0.256378173828125,0.2366943359375,73069.13913137501,-0.6214502382666443,0.3617875046100654,0.07508463114147602,2
1538158453.881136,193,0,73069.157828375,0.3310089111328125,0.2587127685546875,0.2982177734375,73069.149135375,-0.4964899262301643,0.2282707223072698,-0.01745861884212345,2
1538158453.882227,194,0,73069.167630375,0.3581695556640625,0.2720489501953125,0.33856201171875,73069.159122375,-0.3660797213389461,0.2045374296208107,-0.05323499229402993,2
1538158453.883296,195,0,73069.17742737501,0.3633880615234375,0.3095245361328125,0.393035888671875,73069.17915537501,-0.1233437732548019,0.2153418741632622,-0.1360654274660014,2
1538158453.891087,196,0,73069.187238375,0.36761474609375,0.3458099365234375,0.4540557861328125,,,,,2
1538158453.897255,197,0,73069.19704137501,0.38446044921875,0.382781982421875,0.499114990234375,73069.189151375,-0.02303634342918541,0.2236120546123942,-0.1542777208966173,2
1538158453.907741,198,0,73069.20681637501,0.419464111328125,0.4292144775390625,0.51776123046875,73069.209168375,0.1331719029416303,0.09087983956673598,-0.2763397147187641,2
1538158453.916936,199,0,73069.216648375,0.4693145751953125,0.4913787841796875,0.5164031982421875,,,,,2
1538158453.926681,200,0,73069.22645237501,0.5013580322265625,0.5565338134765625,0.50750732421875,73069.21918137501,0.1929817073348479,0.01157196756861231,-0.3624996338855526,2
1538158453.961118,201,0,73069.236230375,0.500091552734375,0.6177978515625,0.4736328125,73069.229188375,0.2493794697394559,-0.01884426155729168,-0.4394724462398948,2
1538158453.962081,202,0,73069.24605837501,0.4606475830078125,0.66046142578125,0.431427001953125,73069.23919237501,0.3205151656165624,-0.01842428105338619,-0.5080019726742498,2
1538158453.962991,203,0,73069.255857375,0.3848876953125,0.672393798828125,0.386871337890625,73069.24920037501,0.4289004956606073,-0.02330931744091853,-0.5739788592037638,2
1538158453.966707,204,0,73069.26565637501,0.2884979248046875,0.6526947021484375,0.375946044921875,73069.259207375,0.5820578246866283,-0.02825400863686866,-0.6437582071376931,2
1538158453.980358,205,0,73069.275465375,0.217193603515625,0.601104736328125,0.4304962158203125,73069.26921137501,0.7556011192249877,-0.02484196664825913,-0.7272424483572789,2
1538158453.995249,206,0,73069.285269375,0.213165283203125,0.50604248046875,0.5391082763671875,73069.279209375,0.9130546597215246,-0.008624647190221614,-0.8035294967309258,2
1538158453.998714,207,0,73069.295065375,0.2997589111328125,0.5221405029296875,0.71722412109375,73069.29923037501,0.9819197444532295,-0.2145943248452769,-0.5700696050396366,2
1538158454.007151,208,0,73069.304867375,0.5174713134765625,0.7119293212890625,0.9257659912109375,,,,,2
1538158454.045398,209,0,73069.314665375,0.8415374755859375,1.016067504882812,1.001480102539062,73069.30923737501,0.7455455555810665,-0.5820088225225708,-0.2543542546557239,2
1538158454.046285,210,0,73069.324475375,1.102813720703125,1.322845458984375,0.7060089111328125,,,,,2
1538158454.046953,211,0,73069.334278375,1.23175048828125,1.564651489257812,0.293243408203125,73069.32922137501,0.6828568740494734,-2.420206762785707,0.300066349502498,2
1538158454.047804,212,0,73069.344056375,1.028656005859375,1.752578735351562,0.0135650634765625,73069.339240375,0.6968507203134037,-2.841376634434033,0.1883017343512516,2
1538158454.05674,213,0,73069.35388537501,0.679779052734375,1.722625732421875,0.2357940673828125,,,,,2
1538158454.063916,214,0,73069.36368737501,0.379730224609375,1.47967529296875,0.447174072265625,73069.359252375,0.2210189346589841,-0.1568687103211554,-1.300692670084662,2
1538158454.073951,215,0,73069.37347237501,0.243988037109375,1.214401245117188,0.6439056396484375,73069.36925037501,0.1780243293885268,0.7994308918132939,-1.515016151447078,2
1538158454.083544,216,0,73069.38329337501,0.2758026123046875,0.9344024658203125,0.439971923828125,,,,,2
1538158454.123988,217,0,73069.39309737501,0.330596923828125,0.727447509765625,0.2287445068359375,73069.389283375,0.7832394050178301,0.4968542466672871,-1.493754005936103,2
1538158454.125167,218,0,73069.402898375,0.3073272705078125,0.6302337646484375,0.2869720458984375,73069.399288375,1.221953116663161,-0.3867144260970981,-1.429347851817518,2
1538158454.125614,219,0,73069.412702375,0.3192291259765625,0.60546875,0.3939361572265625,,,,,2
1538158454.126812,220,0,73069.422504375,0.2975616455078125,0.6646575927734375,0.3622283935546875,73069.419281375,1.768179174147209,-1.435917603910634,-1.248590320202243,2
1538158454.133283,221,0,73069.432282375,0.293914794921875,0.710601806640625,0.269683837890625,73069.42930037501,1.908670509028813,-1.250536025694655,-1.274113523457344,2
1538158454.142405,222,0,73069.442109375,0.3279571533203125,0.7777099609375,0.1473541259765625,,,,,2
1538158454.156594,223,0,73069.45191237501,0.3944854736328125,0.8916473388671875,0.0720977783203125,73069.44932537501,2.130896388293821,-0.8201580082612715,-1.064104096744748,2
1538158454.163148,224,0,73069.46169937501,0.481689453125,1.002761840820312,0.0207366943359375,73069.45933337501,2.139735952584013,-0.6412146219805583,-0.8639832534757245,2
1538158454.19831,225,0,73069.471515375,0.5440826416015625,1.11761474609375,-0.0152740478515625,,,,,2
1538158454.211095,226,0,73069.481319375,0.5719146728515625,1.205459594726562,-0.029937744140625,73069.479343375,1.675656696820113,-0.1147050113108029,-0.6276362288466804,2
1538158454.211961,227,0,73069.49110137501,0.578033447265625,1.237518310546875,-0.016326904296875,73069.48932237501,1.272425878274561,0.1127654310888982,-0.6089722632951871,2
1538158454.212572,228,0,73069.50092637501,0.553497314453125,1.18731689453125,-0.0016326904296875,,,,,2
1538158454.217942,229,0,73069.51071037501,0.482513427734375,1.091094970703125,-0.0087432861328125,73069.50936337501,0.7441074485924237,0.4023090984922751,-0.9021088013251899,2
1538158454.224308,230,0,73069.52052837501,0.3985443115234375,1.008987426757812,0.0010528564453125,73069.519371375,0.7390149519559742,0.180281891044587,-1.05392150031683,2
1538158454.230546,231,0,73069.53033737501,0.32635498046875,0.931488037109375,0.04620361328125,,,,,2
1538158454.240829,232,0,73069.540127375,0.277923583984375,0.8629150390625,0.090911865234375,73069.529377375,0.8597509578713706,-0.1298807684665104,-1.204847899297691,2
1538158454.281049,233,0,73069.549919375,0.24200439453125,0.809326171875,0.1079864501953125,73069.539381375,1.053444794481706,-0.3390704741955805,-1.331278808888113,2
1538158454.282323,234,0,73069.55972637501,0.2232513427734375,0.774810791015625,0.1066741943359375,73069.54937537501,1.268656972699881,-0.4141841337929384,-1.412680724451366,2
1538158454.283734,235,0,73069.569548375,0.224884033203125,0.75439453125,0.077850341796875,73069.55939737501,1.459526793290296,-0.4028228222665514,-1.435315196872059,2
1538158454.284371,236,0,73069.579344375,0.22454833984375,0.7448883056640625,0.0290679931640625,73069.569401375,1.539699127378259,-0.2624846191476268,-1.398255712406952,2
1538158454.290134,237,0,73069.58915137501,0.2213134765625,0.7490692138671875,-0.02655029296875,73069.57937937501,1.508434148812947,-0.08875250648798069,-1.311446780882511,2
1538158454.298926,238,0,73069.59894137501,0.2329559326171875,0.7659454345703125,-0.072906494140625,73069.58941637501,1.405662762346789,-0.02929344041032658,-1.192548622435379,2
1538158454.313464,239,0,73069.60874737501,0.248199462890625,0.8133392333984375,-0.099639892578125,73069.609424375,1.184201742946852,-0.2417167563349709,-0.9886532809533858,2
1538158454.322946,240,0,73069.61852837501,0.26123046875,0.876617431640625,-0.10302734375,,,,,2
1538158454.330265,241,0,73069.62833237501,0.2711944580078125,0.9466705322265625,-0.092803955078125,73069.629439375,1.097820515093478,-0.5636686973596311,-0.9242583121113789,2
1538158454.363107,242,0,73069.63813237501,0.279144287109375,1.012954711914062,-0.0768890380859375,,,,,2
1538158454.364107,243,0,73069.64794137501,0.290802001953125,1.0667724609375,-0.0542449951171875,73069.63944537501,1.037323082506802,-0.5804103932363052,-1.022776097684462,2
1538158454.364794,244,0,73069.657727375,0.2987823486328125,1.088729858398438,-0.018524169921875,73069.649454375,0.9363083170956604,-0.3830701564614337,-1.153150083584855,2
1538158454.369546,245,0,73069.667523375,0.2924346923828125,1.086990356445312,0.0063018798828125,73069.659458375,0.7679283592787465,0.1034366441064596,-1.224588847194013,2
1538158454.37898,246,0,73069.677350375,0.2581634521484375,1.048736572265625,0.0060272216796875,,,,,2
1538158454.39039,247,0,73069.687146375,0.196807861328125,0.9706878662109375,-0.008087158203125,73069.67947237501,0.4132517610953017,1.436680066930724,-1.187094202206787,2
1538158454.400648,248,0,73069.696941375,0.13385009765625,0.8799285888671875,-0.0184326171875,73069.689476375,0.3216480743442821,1.939390338518987,-1.099112414538275,2
1538158454.438785,249,0,73069.70673837501,0.064788818359375,0.799041748046875,-0.0204315185546875,73069.69946637501,0.2787653218396082,2.178752061502,-1.031028434954291,2
1538158454.44348,250,0,73069.716535375,0.011016845703125,0.74822998046875,-0.019073486328125,73069.709492375,0.2550551986546328,2.155654731683852,-1.004461272551878,2
1538158454.444435,251,0,73069.72634537501,-0.0146636962890625,0.7264251708984375,-0.01727294921875,73069.71949637501,0.2147610387295159,1.960608808188084,-0.98529663271545,2
1538158454.446014,252,0,73069.73616637501,-0.0248565673828125,0.7383880615234375,-0.010467529296875,73069.729494375,0.1490390167163224,1.702976468546581,-0.9659226684173415,2
1538158454.44787,253,0,73069.74594537501,-0.0277252197265625,0.79022216796875,0.0071563720703125,73069.739510375,0.08332019049643706,1.430508723736684,-0.9443063224813864,2
1538158454.460866,254,0,73069.75575737501,-0.0172271728515625,0.8722686767578125,0.031097412109375,73069.749514375,0.04503192350436785,1.217536530311374,-0.9122008502760451,2
1538158454.466981,255,0,73069.76557637501,0.0188751220703125,0.970001220703125,0.048004150390625,73069.759505375,0.08432207169852488,1.077734687835991,-0.8798495683020896,2
1538158454.477765,256,0,73069.77537037501,0.07244873046875,1.065078735351562,0.0399322509765625,73069.769529375,0.2012130056320648,1.01320656093948,-0.8493989843981236,2
1538158454.521156,257,0,73069.78517437501,0.1511077880859375,1.1435546875,0.0086212158203125,73069.77953337501,0.3669681518785965,0.9985304128042717,-0.8177563695902381,2
1538158454.525224,258,0,73069.794977375,0.249786376953125,1.175735473632812,-0.0313873291015625,73069.789523375,0.5472492439748565,0.9745774093278811,-0.753931050905399,2
1538158454.526842,259,0,73069.804790375,0.3465728759765625,1.151412963867188,-0.0352630615234375,73069.799548375,0.688021808667573,0.9210571924811036,-0.6764375905579464,2
1538158454.528541,260,0,73069.81458637501,0.3808746337890625,1.086807250976562,-0.0082244873046875,73069.80955237501,0.7170907445980059,0.894015454772439,-0.6120082669378774,2
1538158454.529037,261,0,73069.824389375,0.34173583984375,0.9884796142578125,-0.00115966796875,,,,,2
1538158454.541201,262,0,73069.83420337501,0.32647705078125,0.9417724609375,0.03302001953125,73069.82956737501,0.5261388986460165,0.758433923676505,-0.4765673507474995,2
1538158454.547417,263,0,73069.844010375,0.240020751953125,0.897796630859375,0.0350494384765625,73069.83957137501,0.3792075076163827,0.811167176421164,-0.4017556936177566,2
1538158454.556261,264,0,73069.853815375,0.173980712890625,0.8865509033203125,0.0153961181640625,73069.849552375,0.2796686660813631,0.7455753829852755,-0.2648377882868208,2
1538158454.570974,265,0,73069.863606375,0.1126556396484375,0.9010772705078125,-0.0132293701171875,73069.859587375,0.2635618678085639,0.5090925371406373,-0.1289776905408645,2
1538158454.60579,266,0,73069.873423375,0.0563201904296875,0.92608642578125,-0.0240325927734375,73069.869591375,0.3376057355960369,0.122674520872865,-0.02409708049136397,2
1538158454.612312,267,0,73069.88322637501,0.010406494140625,0.9464111328125,-0.0013885498046875,73069.879598375,0.47416464681203,-0.2452355910832926,0.01735715240459143,2
1538158454.613015,268,0,73069.893029375,-0.0297088623046875,0.95233154296875,0.04388427734375,73069.88959437501,0.6004059393328381,-0.4131233967307598,-0.001397360623964576,2
1538158454.613646,269,0,73069.90283437501,-0.04052734375,0.966827392578125,0.0891265869140625,73069.89959837501,0.6778320217047118,-0.3639004566189343,-0.07022888952593455,2
1538158454.614345,270,0,73069.91260937501,-0.03521728515625,0.967803955078125,0.1105194091796875,,,,,2
1538158454.62686,271,0,73069.92244337501,0.0136871337890625,0.9731903076171875,0.1169281005859375,73069.90961637501,0.6848009816452312,-0.1100271688560787,-0.1594325355025747,2
1538158454.641723,272,0,73069.932248375,0.0800628662109375,0.9800262451171875,0.119293212890625,73069.92962737501,0.6012373782251609,0.4366526912777189,-0.3817505601412994,2
1538158454.644481,273,0,73069.942033375,0.14324951171875,0.9642333984375,0.09942626953125,73069.939636375,0.5190580859397138,0.6193809620996528,-0.4830540122146055,2
1538158454.678523,274,0,73069.951856375,0.2500152587890625,1.000198364257812,0.109771728515625,,,,,2
1538158454.682567,275,0,73069.961652375,0.305206298828125,0.99676513671875,0.086669921875,73069.959626375,0.3052866778712713,0.8506085921652375,-0.6286895090578066,2
1538158454.684098,276,0,73069.971448375,0.346099853515625,0.9894561767578125,0.032196044921875,73069.969654375,0.1846124572931649,0.8509204483288858,-0.6011612118179847,2
1538158454.685691,277,0,73069.98126637501,0.3341827392578125,0.948150634765625,-0.0496673583984375,,,,,2
1538158454.69311,278,0,73069.991069375,0.3529815673828125,0.960968017578125,-0.049102783203125,73069.989655375,0.1143817035544673,0.3208557839199835,-0.4306216966731255,2
1538158454.707583,279,0,73070.000867375,0.3208770751953125,0.96246337890625,-0.03564453125,73069.99967437501,0.1119795322512158,0.1724013310629335,-0.2984785728605928,2
1538158454.712687,280,0,73070.01067437501,0.287506103515625,0.9818115234375,-0.035919189453125,,,,,2
1538158454.723458,281,0,73070.020483375,0.2521514892578125,0.9928131103515625,-0.04193115234375,73070.019684375,0.2101074310407114,0.04053730653264112,-0.2037864181934083,2
1538158454.76241,282,0,73070.030267375,0.226226806640625,1.011062622070312,-0.069854736328125,73070.029692375,0.2786049995419855,0.009529056696412522,-0.226291727301232,2
1538158454.763207,283,0,73070.040090375,0.2075653076171875,1.041717529296875,-0.085052490234375,,,,,2
1538158454.765304,284,0,73070.049892375,0.1842041015625,1.044357299804688,-0.1247711181640625,73070.04970437501,0.2923261381102917,0.3211029252691429,-0.268978737465785,2
1538158454.765992,285,0,73070.05967237501,0.1503448486328125,1.037704467773438,-0.169281005859375,,,,,2
1538158454.774143,286,0,73070.069500375,0.118133544921875,1.052642822265625,-0.16461181640625,73070.059711375,0.2904379568974255,0.3664941092045624,-0.2959757340681363,2
1538158454.784749,287,0,73070.07930337501,0.0728912353515625,1.055145263671875,-0.1656951904296875,73070.07972337501,0.2551686493170701,0.5255316979174783,-0.3124481843586034,2
1538158454.793404,288,0,73070.08909337501,0.0363922119140625,1.058181762695312,-0.1777496337890625,73070.08973037501,0.2908480837052977,0.4933484614083068,-0.3501976938621496,2
1538158454.801167,289,0,73070.098908375,0.0041046142578125,1.072311401367188,-0.1856536865234375,,,,,2
1538158454.841104,290,0,73070.108714375,-0.00677490234375,1.08001708984375,-0.2236328125,73070.10971437501,0.4435361637472467,0.3110489595218758,-0.4378284768989889,2
1538158454.841939,291,0,73070.118512375,0.0055999755859375,1.101058959960938,-0.2627105712890625,,,,,2
1538158454.842515,292,0,73070.12832237501,0.04046630859375,1.121292114257812,-0.3043060302734375,73070.11974937501,0.5245234251287744,0.2371100202813518,-0.5152878487844886,2
1538158454.850256,293,0,73070.138104375,0.066741943359375,1.148910522460938,-0.347930908203125,73070.139744375,0.7046287485930891,0.5187342455511601,-0.5741572909967991,2
1538158454.850898,294,0,73070.147931375,0.0576171875,1.136856079101562,-0.422882080078125,,,,,2
1538158454.859844,295,0,73070.15773637501,0.0336151123046875,1.186920166015625,-0.4808349609375,73070.14974737501,0.8445608196457766,0.6250439078415972,-0.5415570034609212,2
1538158454.869259,296,0,73070.167523375,-0.0207061767578125,1.250396728515625,-0.4677734375,73070.169757375,1.164714860618524,0.09355445224950257,-0.5076469733009422,2
1538158454.879704,297,0,73070.17734337501,-0.0628509521484375,1.326568603515625,-0.41046142578125,,,,,2
1538158454.889771,298,0,73070.187148375,-0.079925537109375,1.540359497070312,-0.29144287109375,73070.17978237501,1.289140409908116,-0.3105083378205897,-0.5970985595750687,2
1538158454.925018,299,0,73070.196952375,-0.0932159423828125,1.698959350585938,-0.184539794921875,73070.18976537501,1.197706100202426,-0.3311161446517318,-0.7758147782147982,2
1538158454.926801,300,0,73070.206758375,-0.123077392578125,1.699859619140625,-0.13604736328125,73070.199769375,0.9374817058719493,0.09449374916597351,-0.9010113126399681,2
1538158454.927962,301,0,73070.216563375,-0.1361541748046875,1.585235595703125,-0.09661865234375,,,,,2
1538158454.928888,302,0,73070.22636137501,-0.1139678955078125,1.432388305664062,-0.033447265625,73070.21980237501,0.4530931836351051,1.130694309273307,-0.744348464671076,2
1538158454.941284,303,0,73070.236173375,-0.0665283203125,1.298065185546875,0.04278564453125,73070.22980637501,0.3064451529454558,1.552684168221268,-0.6691104354508114,2
1538158454.948015,304,0,73070.245977375,-0.005767822265625,1.183395385742188,0.0760498046875,73070.239795375,0.1047783446636415,1.987172774797188,-0.6243634701830819,2
1538158454.957885,305,0,73070.25578037501,0.0684661865234375,1.091629028320312,0.0565185546875,73070.24982337501,-0.2098086243664045,2.278724731978594,-0.5519984591467949,2
1538158454.996497,306,0,73070.26557637501,0.1140899658203125,1.039581298828125,0.0206146240234375,73070.259827375,-0.5948814779675777,2.299226278682242,-0.4175887189304957,2
1538158455.001566,307,0,73070.275390375,0.1358795166015625,1.018783569335938,-0.007080078125,73070.26984537501,-0.9974960410368849,2.074598494430091,-0.2868453525869086,2
1538158455.008461,308,0,73070.285189375,0.137542724609375,1.021881103515625,-0.0121612548828125,73070.27982137501,-1.373083247467414,1.672732545943206,-0.1587558262695855,2
1538158455.009503,309,0,73070.29499537501,0.1209869384765625,1.041946411132812,-0.011993408203125,73070.289825375,-1.673378628823659,1.19051876105252,0.008000402230707039,2
1538158455.010754,310,0,73070.304800375,0.0860137939453125,1.081100463867188,-0.023681640625,73070.29986337501,-1.866395489884896,0.6851234904532397,0.2005362963990756,2
1538158455.019487,311,0,73070.31459537501,0.0296478271484375,1.14300537109375,-0.047882080078125,73070.31985537501,-1.914943851292604,-0.5342207936060799,0.5416222509076282,2
1538158455.026323,312,0,73070.32440537501,-0.041107177734375,1.21893310546875,-0.054779052734375,,,,,2
1538158455.035771,313,0,73070.334179375,-0.1025238037109375,1.296966552734375,-0.024749755859375,73070.32988237501,-1.811864070772215,-1.189970948816291,0.6690670259250431,2
1538158455.047262,314,0,73070.344006375,-0.188262939453125,1.353042602539062,0.0535888671875,73070.33989037501,-1.666092220081202,-1.731387071055547,0.7694540842672529,2
1538158455.085587,315,0,73070.35378237501,-0.244537353515625,1.38067626953125,0.1592559814453125,73070.349894375,-1.524017369615437,-1.995916997920354,0.863462072850396,2
1538158455.091212,316,0,73070.363610375,-0.273468017578125,1.368011474609375,0.226287841796875,73070.35987837501,-1.461243466928961,-1.946434399602246,0.9447097913865333,2
1538158455.093058,317,0,73070.373421375,-0.2731781005859375,1.299407958984375,0.2199554443359375,73070.37989737501,-1.851633055330368,-1.696650395693207,1.210527090322285,2
1538158455.093791,318,0,73070.383225375,-0.2465057373046875,1.17608642578125,0.1401519775390625,,,,,2
1538158455.094624,319,0,73070.393006375,-0.2135162353515625,1.06787109375,0.038360595703125,73070.389920375,-2.216064812586774,-1.873830769332288,1.430805133566009,2
1538158455.106895,320,0,73070.402833375,-0.23052978515625,0.99676513671875,-0.0437164306640625,,,,,2
1538158455.114637,321,0,73070.41263637501,-0.2579803466796875,0.9423370361328125,-0.0768280029296875,73070.40991237501,-2.685313796658735,-2.531761254526947,1.512976702684295,2
1538158455.124709,322,0,73070.422437375,-0.2838134765625,0.896270751953125,-0.08447265625,73070.419939375,-2.683206170972047,-2.727127289985742,1.37701966587466,2
1538158455.158947,323,0,73070.432225375,-0.2920379638671875,0.8556060791015625,-0.0951080322265625,,,,,2
1538158455.163489,324,0,73070.442029375,-0.26727294921875,0.8614654541015625,-0.102874755859375,73070.439942375,-2.142543989637392,-2.479432269635762,1.10261420505562,2
1538158455.164289,325,0,73070.451823375,-0.223388671875,0.8948516845703125,-0.1066131591796875,73070.449958375,-1.636938062995887,-2.210470043768735,1.073813449446959,2
1538158455.165714,326,0,73070.46164337501,-0.1345672607421875,0.9544219970703125,-0.0807647705078125,,,,,2
1538158455.173733,327,0,73070.471441375,-0.0233306884765625,0.9656982421875,-0.021728515625,73070.469940375,-0.5432523718108656,-1.901668525890777,1.272360098195636,2
1538158455.184266,328,0,73070.48125537501,0.12261962890625,0.9367828369140625,0.029052734375,73070.479977375,-0.2690559691373973,-1.800998639840801,1.639871534936609,2
1538158455.193447,329,0,73070.491044375,0.257049560546875,0.9114532470703125,0.03839111328125,,,,,2
1538158455.237516,330,0,73070.50086337501,0.36212158203125,0.9104461669921875,0.03717041015625,73070.49997037501,-0.1599190950337321,-1.199047534443499,2.776523868200641,2
1538158455.242602,331,0,73070.510662375,0.42529296875,0.9503173828125,0.014373779296875,73070.50999637501,-0.2574531089001401,-0.5975747327779749,3.237683500461487,2
1538158455.243299,332,0,73070.52045937501,0.4474945068359375,1.01116943359375,-0.0589141845703125,,,,,2
1538158455.244987,333,0,73070.53026137501,0.44683837890625,1.026351928710938,-0.1227874755859375,73070.520003375,-0.4110946006123375,-0.05256946833761912,3.425931438958719,2
1538158455.245925,334,0,73070.54005337501,0.4457855224609375,0.9888458251953125,-0.166473388671875,73070.53000737501,-0.6359319756422772,0.2220818022500347,3.391730857923813,2
1538158455.25168,335,0,73070.549869375,0.4502716064453125,0.95269775390625,-0.1840972900390625,73070.54001537501,-0.9355834046469408,0.2856953996282124,3.24434273476723,2
1538158455.261509,336,0,73070.559673375,0.45001220703125,0.9137725830078125,-0.1736602783203125,73070.55002337501,-1.264284594822189,0.3403139041085385,3.037057988165894,2
1538158455.2771,337,0,73070.569489375,0.4384307861328125,0.878326416015625,-0.118255615234375,73070.570010375,-1.986912583958687,0.6598753917387435,2.523282548564461,2
1538158455.281243,338,0,73070.57928037501,0.4067230224609375,0.878753662109375,-0.029052734375,,,,,2
1538158455.317826,339,0,73070.58908437501,0.3215179443359375,0.87432861328125,0.149322509765625,73070.580040375,-2.361010018075426,0.7993214358924916,2.184907958361718,2
1538158455.324587,340,0,73070.59888237501,0.186767578125,0.8605804443359375,0.392913818359375,73070.590044375,-2.616210092693359,0.8820557309491112,1.800231915762967,2
1538158455.325751,341,0,73070.60870337501,0.0610809326171875,0.8355560302734375,0.5377960205078125,73070.600053375,-2.54068337681093,0.9614144693240554,1.537238899163244,2
1538158455.330634,342,0,73070.618502375,-0.027923583984375,0.8118896484375,0.481903076171875,73070.620065375,-1.349652756196897,0.5860341905102255,1.64496349894084,2
1538158455.331142,343,0,73070.62830937501,-0.0551605224609375,0.771331787109375,0.393096923828125,,,,,2
1538158455.340259,344,0,73070.63811337501,0.014068603515625,0.7389373779296875,0.302703857421875,73070.630068375,-0.8396568748145047,0.2874341775039251,1.871921016514592,2
1538158455.349953,345,0,73070.647917375,0.1268768310546875,0.7200927734375,0.20654296875,73070.64007937501,-0.6408987710752749,0.2883220754113576,1.986891811302185,2
1538158455.360052,346,0,73070.65772037501,0.2364044189453125,0.7048187255859375,0.1607513427734375,73070.650083375,-0.7089105789937186,0.4217629576230859,1.953228389859147,2
1538158455.370247,347,0,73070.667523375,0.344451904296875,0.7067718505859375,0.1607208251953125,73070.660068375,-0.9375898302122065,0.5809523465181363,1.8197012212281,2
1538158455.399982,348,0,73070.677327375,0.420654296875,0.72235107421875,0.1881103515625,73070.67009837501,-1.192170986192805,0.7078682177430615,1.633942805717874,2
1538158455.400952,349,0,73070.687129375,0.4610748291015625,0.7288818359375,0.252166748046875,73070.680102375,-1.300806653379317,0.6439448947301075,1.475619476809318,2
1538158455.401583,350,0,73070.696931375,0.452484130859375,0.7077789306640625,0.3127288818359375,73070.69009637501,-1.260409695436123,0.515337649896873,1.332095334078331,2
1538158455.409251,351,0,73070.706708375,0.4075927734375,0.6739654541015625,0.345733642578125,73070.700117375,-1.166991330718324,0.4673773144578541,1.1927709963864,2
1538158455.418531,352,0,73070.71653637501,0.3318023681640625,0.632354736328125,0.361083984375,73070.710121375,-1.088729015764165,0.5372051319236227,1.053472225040933,2
1538158455.428362,353,0,73070.72633837501,0.2663726806640625,0.5862274169921875,0.373443603515625,73070.72012137501,-1.033986674293151,0.6283020191192001,0.9180345046438637,2
1538158455.437792,354,0,73070.736127375,0.2234649658203125,0.5552520751953125,0.34796142578125,73070.730136375,-0.9710668303789386,0.6571216831716016,0.8204397707046019,2
1538158455.479008,355,0,73070.745941375,0.235443115234375,0.5276641845703125,0.3291015625,73070.740140375,-0.8921387251522602,0.5746584979139521,0.7387614190201987,2
1538158455.479964,356,0,73070.755748375,0.2623138427734375,0.5178985595703125,0.3247528076171875,73070.750141375,-0.7962537406328293,0.45198051493167,0.670344544299954,2
1538158455.480545,357,0,73070.765546375,0.3316802978515625,0.495330810546875,0.354034423828125,73070.760155375,-0.7033925092150743,0.3503750603907488,0.5846908920563896,2
1538158455.481479,358,0,73070.77535337501,0.3760528564453125,0.47821044921875,0.3574676513671875,73070.77015937501,-0.6438713914840214,0.3679995941687842,0.4200207176379561,2
1538158455.487481,359,0,73070.78515537501,0.3930816650390625,0.48046875,0.38116455078125,73070.78015037501,-0.5779821229543709,0.276505363338567,0.2754137336077435,2
1538158455.49758,360,0,73070.79493437501,0.4350738525390625,0.4837646484375,0.3975830078125,73070.790173375,-0.4965570378896343,0.1831887313744085,0.1661402393401572,2
1538158455.509811,361,0,73070.80476337501,0.43743896484375,0.488861083984375,0.40179443359375,73070.800177375,-0.4205067445368955,0.1153388436502417,0.05662040267173865,2
1538158455.516499,362,0,73070.81456537501,0.444061279296875,0.4687957763671875,0.424468994140625,73070.810168375,-0.3493103285869352,0.07227632777198748,-0.009451026076473201,2
1538158455.527139,363,0,73070.82436137501,0.43463134765625,0.4306793212890625,0.41302490234375,73070.82016637501,-0.3002596949976378,0.1148959599609616,-0.1072915697843493,2
1538158455.557359,364,0,73070.83417437501,0.4304656982421875,0.4158477783203125,0.415313720703125,73070.830170375,-0.2376407882866046,0.1015457997325033,-0.1736740557478824,2
1538158455.558282,365,0,73070.843977375,0.4438934326171875,0.40740966796875,0.431549072265625,73070.840187375,-0.176180356649756,0.05541692017513184,-0.2270366134581271,2
1538158455.559217,366,0,73070.85378037501,0.4629364013671875,0.4026336669921875,0.4459991455078125,73070.85019537501,-0.1231925057048854,-0.03311987026455243,-0.2769711502132218,2
1538158455.569415,367,0,73070.863583375,0.490814208984375,0.4139404296875,0.4497222900390625,73070.86019937501,-0.0445360429093951,-0.2054514265069259,-0.3217514049945772,2
1538158455.575597,368,0,73070.87336337501,0.5172576904296875,0.43719482421875,0.4475555419921875,73070.870205375,0.05535114009620689,-0.3724513342469607,-0.3620921702387705,2
1538158455.586043,369,0,73070.883189375,0.5516510009765625,0.456695556640625,0.4580078125,,,,,2
1538158455.594966,370,0,73070.89299237501,0.5482025146484375,0.4857635498046875,0.428070068359375,73070.890212375,0.2254168788831409,-0.3868510462610191,-0.4199070006594097,2
1538158455.604308,371,0,73070.902783375,0.5359039306640625,0.5229949951171875,0.41607666015625,73070.900236375,0.2923857929187095,-0.3126423288020702,-0.4229741632868539,2
1538158455.637622,372,0,73070.91259737501,0.5026397705078125,0.5488739013671875,0.4247283935546875,,,,,2
1538158455.638459,373,0,73070.922400375,0.4405975341796875,0.55560302734375,0.4632568359375,73070.920226375,0.4466350179916629,-0.198196443065332,-0.4297106292642094,2
1538158455.639379,374,0,73070.932193375,0.36395263671875,0.55755615234375,0.5189056396484375,73070.930241375,0.507302892888104,-0.1674856683228653,-0.4325157368403899,2
1538158455.644004,375,0,73070.94200537501,0.3038330078125,0.5923309326171875,0.5736541748046875,,,,,2
1538158455.659109,376,0,73070.95180737501,0.28515625,0.6589813232421875,0.60565185546875,73070.95025737501,0.3858776608825952,0.1141225779804025,-0.392190950562737,2
1538158455.663888,377,0,73070.961591375,0.3006439208984375,0.7326812744140625,0.6363067626953125,73070.96026937501,0.2516980177844789,0.3183771798934468,-0.3407613151716718,2
1538158455.673416,378,0,73070.971412375,0.3507537841796875,0.798828125,0.6435394287109375,,,,,2
1538158455.6817,379,0,73070.98119437501,0.443939208984375,0.846923828125,0.6311798095703125,73070.980285375,0.1109952279123225,0.2193941400779267,-0.1422173295840845,2
1538158455.717015,380,0,73070.99100537501,0.537567138671875,0.8772430419921875,0.6172943115234375,73070.99026837501,0.2112808198170003,-0.4231754982652639,0.03624242664267033,2
1538158455.717637,381,0,73071.00082137501,0.6702880859375,0.8561859130859375,0.6278228759765625,,,,,2
1538158455.718647,382,0,73071.010623375,0.829071044921875,0.810302734375,0.4991302490234375,73071.01031137501,0.352866713906627,-1.584140361752848,0.1497628639006059,2
1538158455.724331,383,0,73071.02040037501,0.9395904541015625,0.7887420654296875,0.2146759033203125,73071.020318375,0.3375130575901022,-2.044822755546352,0.007095460092298114,2
1538158455.732208,384,0,73071.030229375,0.8956146240234375,0.753631591796875,0.001495361328125,,,,,2
1538158455.748531,385,0,73071.040031375,0.738983154296875,0.756561279296875,0.1627044677734375,73071.04032837501,0.2480553460454685,-2.10993944104377,-0.4078008029761275,2
1538158455.754847,386,0,73071.049831375,0.5850677490234375,0.785247802734375,0.6366424560546875,73071.050336375,0.2627991384723652,-1.539500988193157,-0.5760159111215655,2
1538158455.761548,387,0,73071.05963637501,0.4959564208984375,0.8216552734375,0.848052978515625,,,,,2
1538158455.801073,388,0,73071.06943837501,0.4876251220703125,0.8534088134765625,0.6335601806640625,73071.070349375,0.5825675537192694,-0.50350282832867,-1.116449593234691,2
1538158455.801891,389,0,73071.079237375,0.547607421875,0.88861083984375,0.32586669921875,73071.080355375,0.7872991277835468,-0.5684474736196693,-1.127714232013508,2
1538158455.802307,390,0,73071.089045375,0.597015380859375,0.9260711669921875,0.1872406005859375,,,,,2
1538158455.80826,391,0,73071.098847375,0.72991943359375,1.021575927734375,0.2519073486328125,73071.10036737501,0.9883592679690411,-0.8105091093158054,-0.6443733973495013,2
1538158455.818176,392,0,73071.108626375,0.826385498046875,1.129409790039062,0.282562255859375,,,,,2
1538158455.828314,393,0,73071.118451375,0.8345947265625,1.168350219726562,0.2605438232421875,73071.12038237501,0.9371466802068174,-0.1955780230815661,-0.8253189481377361,2
1538158455.832351,394,0,73071.128251375,0.7555999755859375,1.091629028320312,0.2259674072265625,73071.13038637501,0.9532907627348777,0.01619521522098986,-0.8746899600061701,2
1538158455.840025,395,0,73071.138043375,0.6751708984375,0.99407958984375,0.1815032958984375,,,,,2
1538158455.876548,396,0,73071.147839375,0.5940093994140625,0.9131011962890625,0.182525634765625,,,,,2
1538158455.877815,397,0,73071.15763637501,0.5288543701171875,0.8513641357421875,0.2001800537109375,73071.15040137501,1.025230733261188,0.1274162791937511,-0.7703715432627852,2
1538158455.878464,398,0,73071.167439375,0.4682769775390625,0.827178955078125,0.2252349853515625,73071.16040537501,1.062448409495045,0.03207511216891434,-0.750095566303467,2
1538158455.887727,399,0,73071.17724237501,0.420196533203125,0.8268890380859375,0.240020751953125,73071.17038337501,1.171546934079013,-0.03613510125074015,-0.7772326451791564,2
1538158455.900945,400,0,73071.187045375,0.3899078369140625,0.838775634765625,0.22515869140625,73071.19042337501,1.412928931064962,-0.2790958201308871,-0.8794807204911136,2
1538158455.901693,401,0,73071.19686337501,0.3817291259765625,0.84765625,0.1915435791015625,,,,,2
1538158455.908254,402,0,73071.206666375,0.3785858154296875,0.8600311279296875,0.13946533203125,73071.20041237501,1.50994735694433,-0.4558575448466073,-0.9442834192960117,2
1538158455.918691,403,0,73071.21646537501,0.3937835693359375,0.8660430908203125,0.116729736328125,73071.21043937501,1.588695432481319,-0.6473244461534181,-0.9931809211226296,2
1538158455.957477,404,0,73071.22627537501,0.4239349365234375,0.8804931640625,0.1129913330078125,73071.220443375,1.614663383638464,-0.8139706861006905,-0.9980561038141286,2
1538158455.958324,405,0,73071.236078375,0.4500579833984375,0.8923797607421875,0.118499755859375,73071.23044137501,1.561135443624525,-0.9006200942758356,-0.960662658948326,2
1538158455.959047,406,0,73071.24589237501,0.4825592041015625,0.8911895751953125,0.1298828125,73071.24045737501,1.442203463031549,-0.8597767905339443,-0.9089150421231054,2
1538158455.959561,407,0,73071.25568837501,0.50860595703125,0.895050048828125,0.119476318359375,73071.25046137501,1.276934077367847,-0.7284643066654073,-0.8284886424671484,2
1538158455.967374,408,0,73071.26550537501,0.5244140625,0.90374755859375,0.1091461181640625,73071.26043937501,1.12457569666885,-0.5580502264078909,-0.7652710571430654,2
1538158455.980487,409,0,73071.27528237501,0.53076171875,0.916473388671875,0.0962982177734375,73071.270477375,1.026958059544214,-0.3879709054993974,-0.7366503312240928,2
1538158455.987207,410,0,73071.28511337501,0.528778076171875,0.9258575439453125,0.0791015625,73071.280481375,0.9862931875953577,-0.2394754399615602,-0.7456406304319824,2
1538158455.998404,411,0,73071.294916375,0.5084075927734375,0.932891845703125,0.05731201171875,73071.29048137501,0.9920168534101559,-0.1274498350234861,-0.7965003493497707,2
1538158456.011301,412,0,73071.30471937501,0.4950714111328125,0.915435791015625,0.0318603515625,73071.30047637501,1.028082446156445,-0.08043998177751636,-0.8785249119758841,2
1538158456.0404,413,0,73071.31452137501,0.4822235107421875,0.890899658203125,-0.0088653564453125,73071.310480375,1.100640802687872,-0.07285450004464367,-0.9769268500415489,2
1538158456.041115,414,0,73071.324324375,0.465179443359375,0.8768768310546875,-0.03228759765625,73071.32050637501,1.196612606258839,-0.1129513197329857,-1.066206928741474,2
1538158456.041618,415,0,73071.334116375,0.45025634765625,0.8735809326171875,-0.044952392578125,73071.33051337501,1.280528279575018,-0.1538609361860199,-1.127902251186468,2
1538158456.047454,416,0,73071.343931375,0.4395294189453125,0.8836669921875,-0.0547637939453125,73071.34051737501,1.323523417477693,-0.1308570833221334,-1.163860252224718,2
1538158456.055688,417,0,73071.35373437501,0.4166259765625,0.90380859375,-0.0775909423828125,73071.350526375,1.296004973933905,-0.04725699459512906,-1.191406925276062,2
1538158456.066356,418,0,73071.36353637501,0.3946990966796875,0.915435791015625,-0.0958709716796875,,,,,2
1538158456.075443,419,0,73071.373339375,0.3661651611328125,0.919342041015625,-0.11248779296875,73071.370514375,1.143484673040631,0.143715890329472,-1.203993823536103,2
1538158456.085705,420,0,73071.383130375,0.3427581787109375,0.9290771484375,-0.1298675537109375,73071.380544375,1.064408496057344,0.200109657992445,-1.191376831555744,2
1538158456.115445,421,0,73071.39294637501,0.3133697509765625,0.948486328125,-0.143310546875,,,,,2
1538158456.116286,422,0,73071.402749375,0.2795867919921875,0.96868896484375,-0.1470794677734375,73071.40054437501,0.8586883565964289,0.1675264146875435,-1.169800699352249,2
1538158456.11676,423,0,73071.412552375,0.2431640625,0.9832916259765625,-0.1505126953125,,,,,2
1538158456.127109,424,0,73071.42235537501,0.1983489990234375,0.991943359375,-0.1537322998046875,73071.410563375,0.7034271303092454,0.0996626785257083,-1.175144598395602,2
1538158456.142401,425,0,73071.432141375,0.157867431640625,0.9872589111328125,-0.1365966796875,73071.43057337501,0.3350384483052005,-0.0174500967266352,-1.245166293988728,2
1538158456.144605,426,0,73071.441937375,0.1178741455078125,0.9662933349609375,-0.099365234375,73071.44058337501,0.2073159055860904,-0.006822752396674001,-1.251882786257908,2
1538158456.153709,427,0,73071.45176537501,0.0901947021484375,0.936920166015625,-0.0488433837890625,,,,,2
1538158456.169013,428,0,73071.461568375,0.07183837890625,0.900421142578125,0.0015106201171875,73071.460572375,0.09717075869372116,0.5830852722351808,-1.1434364698249,2
1538158456.197275,429,0,73071.47134437501,0.0703125,0.8553619384765625,0.0205535888671875,73071.47060137501,0.1009939927546389,1.065896137842262,-1.019166449142969,2
1538158456.1979,430,0,73071.481170375,0.0864715576171875,0.818878173828125,0.0113067626953125,,,,,2
1538158456.198535,431,0,73071.490976375,0.1154937744140625,0.800537109375,-0.0029296875,73071.49060037501,0.1706873205853585,1.613404507391183,-0.8936415469553919,2
1538158456.202979,432,0,73071.50075437501,0.1462860107421875,0.79461669921875,-0.0144805908203125,,,,,2
1538158456.212672,433,0,73071.510583375,0.169708251953125,0.798919677734375,-0.027923583984375,73071.50062037501,0.1838523911180562,1.612066801575637,-0.924395198591409,2
1538158456.223307,434,0,73071.520385375,0.19525146484375,0.8193206787109375,-0.045806884765625,73071.52063137501,0.2021110235516395,1.241432542140437,-0.9597816852597278,2
1538158456.234674,435,0,73071.530181375,0.2182159423828125,0.84320068359375,-0.0565032958984375,,,,,2
1538158456.247138,436,0,73071.53999237501,0.2317352294921875,0.8734283447265625,-0.0699005126953125,73071.530638375,0.2235340239924549,1.025191584793164,-0.9334323694344838,2
1538158456.27773,437,0,73071.549793375,0.2410736083984375,0.9214324951171875,-0.0815887451171875,73071.550651375,0.2281796421979891,0.9059386932888328,-0.8589717169364134,2
1538158456.278436,438,0,73071.559585375,0.247955322265625,0.9628753662109375,-0.0794830322265625,73071.56065837501,0.2229950001878229,0.9034102881499115,-0.7844229138062613,2
1538158456.278812,439,0,73071.56940037501,0.2476654052734375,0.98260498046875,-0.068572998046875,,,,,2
1538158456.283379,440,0,73071.579203375,0.254669189453125,0.989776611328125,-0.0563201904296875,73071.580670375,0.2547073898162684,0.747177274380958,-0.5687649224216067,2
1538158456.293924,441,0,73071.589006375,0.260772705078125,0.988037109375,-0.0313262939453125,73071.59065537501,0.2786769048914176,0.6415773445210271,-0.5091252940220452,2
1538158456.300713,442,0,73071.59880937501,0.2583770751953125,0.97503662109375,-0.0154571533203125,,,,,2
1538158456.316158,443,0,73071.608593375,0.2953643798828125,0.978912353515625,0.0074310302734375,73071.610688375,0.4170648751440771,0.4568572955198231,-0.3891176626647856,2
1538158456.326092,444,0,73071.61841537501,0.3139495849609375,0.9806060791015625,0.0057220458984375,,,,,2
1538158456.359714,445,0,73071.628218375,0.342742919921875,0.9849090576171875,-0.0088348388671875,73071.63068237501,0.4506302922589998,0.4907841035946695,-0.2686301296790937,2
1538158456.360554,446,0,73071.637993375,0.3666534423828125,0.987152099609375,-0.00164794921875,,,,,2
1538158456.361043,447,0,73071.64782337501,0.3558807373046875,0.9633636474609375,-0.0053558349609375,73071.640686375,0.3914218296399222,0.5950993245447462,-0.2348599154763439,2
1538158456.361409,448,0,73071.657622375,0.3369140625,0.941680908203125,-0.0084228515625,,,,,2
1538158456.369409,449,0,73071.667401375,0.3080902099609375,0.93841552734375,-0.014404296875,73071.660722375,0.3434066330824475,0.6796411070332027,-0.1560766862129658,2
1538158456.379229,450,0,73071.677230375,0.2699127197265625,0.9457244873046875,-0.020233154296875,73071.670726375,0.3772277136620178,0.6321212584384828,-0.1276708773939627,2
1538158456.389062,451,0,73071.687035375,0.2325286865234375,0.9743194580078125,-0.02203369140625,,,,,2
1538158456.398946,452,0,73071.69681337501,0.1976776123046875,0.9852142333984375,-0.00634765625,73071.690741375,0.4156539323985531,0.3724545300402688,-0.09123190946284446,2
1538158456.409979,453,0,73071.706633375,0.172332763671875,0.9974212646484375,0.006622314453125,73071.700745375,0.4188912710196535,0.3046139633799173,-0.08323097459991941,2
1538158456.436793,454,0,73071.716443375,0.141876220703125,0.9945068359375,0.01434326171875,,,,,2
1538158456.438107,455,0,73071.726239375,0.1147003173828125,0.9964752197265625,0.0179595947265625,73071.720730375,0.4175921810399128,0.281784014935213,-0.1459356350980531,2
1538158456.439313,456,0,73071.736035375,0.0923004150390625,1.0045166015625,0.0248870849609375,73071.730734375,0.4195197770369122,0.2493941171254513,-0.2096008978013784,2
1538158456.44726,457,0,73071.74583137501,0.082305908203125,0.9970245361328125,0.016632080078125,,,,,2
1538158456.459269,458,0,73071.755628375,0.08001708984375,0.9952850341796875,0.0125885009765625,73071.750755375,0.4024776765892771,0.2189959974949599,-0.2894576473001674,2
1538158456.468409,459,0,73071.765453375,0.0826263427734375,0.97100830078125,0.0135650634765625,73071.760759375,0.3802386835904614,0.2252799924031109,-0.3003875267299616,2
1538158456.476724,460,0,73071.77524637501,0.0894775390625,0.9544525146484375,0.004180908203125,,,,,2
1538158456.515702,461,0,73071.785036375,0.1012115478515625,0.9445343017578125,-0.0095672607421875,73071.79078137501,0.2561518883915274,0.1020981393425858,-0.3199130248940955,2
1538158456.516544,462,0,73071.79482737501,0.1062469482421875,0.9214630126953125,-0.02972412109375,,,,,2
1538158456.517137,463,0,73071.804628375,0.1162109375,0.9281463623046875,-0.0396575927734375,73071.800781375,0.2394570641500387,-0.01467827866408073,-0.3277310005901321,2
1538158456.518104,464,0,73071.814419375,0.1222686767578125,0.9569091796875,-0.0476837158203125,73071.81078537501,0.2384077786805474,-0.09521147107974987,-0.3154168100257148,2
1538158456.527833,465,0,73071.824211375,0.11663818359375,0.9731292724609375,-0.0613861083984375,73071.82078937501,0.2432302307824629,-0.09062524136652442,-0.2759793890232763,2
1538158456.537624,466,0,73071.834011375,0.102691650390625,0.96783447265625,-0.07489013671875,,,,,2
1538158456.548005,467,0,73071.843807375,0.0992279052734375,0.9776153564453125,-0.0617218017578125,73071.84082337501,0.3080920517635608,-0.1202632948219072,-0.2633717181067322,2
1538158456.557,468,0,73071.853634375,0.0842132568359375,0.9610137939453125,-0.0579376220703125,73071.850827375,0.2982069304294047,-0.04905942202089469,-0.2512221108976817,2
1538158456.569253,469,0,73071.86344137501,0.0721588134765625,0.9257354736328125,-0.068572998046875,,,,,2
1538158456.596926,470,0,73071.873221375,0.0685577392578125,0.9161529541015625,-0.0692291259765625,73071.870824375,0.2381957910577771,0.03070411683974155,-0.2343232885166929,2
1538158456.597663,471,0,73071.88302037501,0.0639495849609375,0.935791015625,-0.0843658447265625,73071.88082837501,0.1774011496934483,0.04987914300442108,-0.2297631577821503,2
1538158456.598045,472,0,73071.892821375,0.041961669921875,0.9630889892578125,-0.1040496826171875,,,,,2
1538158456.608671,473,0,73071.902645375,0.0226898193359375,0.9923553466796875,-0.1109619140625,73071.90085037501,0.1534769083568305,-0.0988355006911297,-0.2502010549357453,2
1538158456.616971,474,0,73071.91244137501,0.02099609375,1.018524169921875,-0.129119873046875,73071.910854375,0.1923057970501857,-0.267666065364485,-0.2613208177512622,2
1538158456.625595,475,0,73071.92224837501,0.0487823486328125,1.02197265625,-0.144989013671875,,,,,2
1538158456.639241,476,0,73071.932034375,0.08160400390625,1.017654418945312,-0.1509857177734375,73071.920852375,0.2343459253859586,-0.4184984547588668,-0.2768047026450919,2
1538158456.677804,477,0,73071.94182937501,0.1122894287109375,1.011566162109375,-0.1525115966796875,73071.940871375,0.314787771376238,-0.5457759832598247,-0.3868987168445316,2
1538158456.678523,478,0,73071.95165837501,0.135498046875,1.032821655273438,-0.1407928466796875,73071.950904375,0.3333617220828867,-0.4571174863583238,-0.4395821684768061,2
1538158456.678848,479,0,73071.961448375,0.1523590087890625,1.068679809570312,-0.1241607666015625,,,,,2
1538158456.679369,480,0,73071.97125037501,0.169464111328125,1.094100952148438,-0.1163482666015625,73071.97091437501,0.3421416315646599,0.02869609337782181,-0.456991518838763,2
1538158456.684395,481,0,73071.98104537501,0.19317626953125,1.08880615234375,-0.1255035400390625,73071.98092237501,0.3526765642047953,0.310284898605132,-0.4099864592827555,2
1538158456.694672,482,0,73071.99085637501,0.239898681640625,1.082733154296875,-0.141143798828125,,,,,2
1538158456.704517,483,0,73072.000659375,0.294219970703125,1.078582763671875,-0.1531524658203125,73072.000934375,0.3311470373203768,0.7456046777572664,-0.3793811457194559,2
1538158456.715265,484,0,73072.010463375,0.333099365234375,1.054443359375,-0.17315673828125,73072.01094237501,0.2986809731034388,0.84770068657098,-0.3549093584627178,2
1538158456.72396,485,0,73072.02027737501,0.34368896484375,1.05499267578125,-0.19378662109375,,,,,2
1538158456.758212,486,0,73072.03008137501,0.323272705078125,1.078201293945312,-0.2422943115234375,73072.030944375,0.3042794703470034,0.6455688903628379,-0.1722039908261587,2
1538158456.758952,487,0,73072.039882375,0.2869873046875,1.177749633789062,-0.286773681640625,73072.04095737501,0.3529556634870357,0.3056520635728302,-0.09030752624847796,2
1538158456.759343,488,0,73072.04968737501,0.2433624267578125,1.281402587890625,-0.3026580810546875,,,,,2
1538158456.763417,489,0,73072.059488375,0.1987762451171875,1.363006591796875,-0.29449462890625,73072.05093737501,0.41487895252134,-0.08969499919775974,-0.03662672078796877,2
1538158456.773372,490,0,73072.06927037501,0.1419525146484375,1.416961669921875,-0.2610931396484375,73072.06094137501,0.4749769109445042,-0.4577065775914493,-0.01193761958628019,2
1538158456.784624,491,0,73072.079094375,0.0711517333984375,1.476211547851562,-0.2183837890625,73072.070979375,0.5328079866477928,-0.7440384727201907,0.009983924610598056,2
1538158456.793662,492,0,73072.08888937501,-0.0010986328125,1.54083251953125,-0.1741485595703125,73072.090973375,0.5736752588394948,-0.8079146577818502,-0.01149233905201894,2
1538158456.803168,493,0,73072.09867937501,-0.05224609375,1.586578369140625,-0.1306915283203125,,,,,2
1538158456.837079,494,0,73072.10850237501,-0.0796661376953125,1.636672973632812,-0.0829620361328125,73072.100998375,0.5753194944965098,-0.6268295573524953,-0.1737214600152858,2
1538158456.838082,495,0,73072.11830637501,-0.0927734375,1.613555908203125,-0.055328369140625,73072.12100337501,0.314819196677101,0.1542247239909247,-0.4219882610513066,2
1538158456.838701,496,0,73072.128105375,-0.067138671875,1.522171020507812,-0.0522613525390625,73072.131016375,0.1183221167033485,0.5456931589499232,-0.4429244356448555,2
1538158456.842009,497,0,73072.13790437501,-0.0370025634765625,1.409286499023438,-0.0687103271484375,,,,,2
1538158456.8514,498,0,73072.14771637501,-0.00823974609375,1.3026123046875,-0.0878448486328125,73072.14102537501,-0.08629653933070962,0.8192826272109625,-0.475844302511543,2
1538158456.862874,499,0,73072.15752037501,-0.001007080078125,1.206619262695312,-0.0938873291015625,73072.151029375,-0.2901018659678575,0.9796797596603638,-0.4695488560107047,2
1538158456.872853,500,0,73072.16732237501,-0.0140838623046875,1.127426147460938,-0.082183837890625,73072.161006375,-0.496549048406364,1.090639567530188,-0.4138975776596459,2
1538158456.919015,501,0,73072.177126375,-0.0292205810546875,1.0738525390625,-0.05615234375,73072.18104737501,-0.8533354028053697,1.24812666385646,-0.2653099667480919,2
1538158456.919758,502,0,73072.18692937501,-0.0327911376953125,1.066650390625,-0.0164337158203125,,,,,2
1538158456.920478,503,0,73072.19673337501,-0.0238800048828125,1.09698486328125,0.028076171875,73072.191051375,-1.012586044405492,1.304784084467351,-0.2279455503381712,2
1538158456.921132,504,0,73072.206536375,-0.02093505859375,1.1513671875,0.073883056640625,73072.20106237501,-1.13721133077684,1.297465984107922,-0.223840820150032,2
1538158456.922234,505,0,73072.216340375,-0.01519775390625,1.213546752929688,0.119842529296875,73072.21106637501,-1.215874717791164,1.168156197379125,-0.2130214619054761,2
1538158456.929989,506,0,73072.226142375,0.0019989013671875,1.2593994140625,0.1696929931640625,,,,,2
1538158456.93918,507,0,73072.235927375,0.0260772705078125,1.27972412109375,0.2032012939453125,73072.231080375,-1.393944320918223,0.588873652864468,-0.09649138629964195,2
1538158456.949514,508,0,73072.245746375,0.0562896728515625,1.277114868164062,0.21820068359375,73072.24108437501,-1.559263774010417,0.1685301601023944,-0.004464523251408835,2
1538158456.959479,509,0,73072.25554937501,0.0937957763671875,1.2659912109375,0.2144317626953125,,,,,2
1538158456.999228,510,0,73072.26534537501,0.13275146484375,1.231689453125,0.170379638671875,73072.261099375,-2.05252754689606,-0.6450381223575851,0.2363193277537073,2
1538158456.999942,511,0,73072.275151375,0.1613006591796875,1.154617309570312,0.0819854736328125,73072.27110337501,-2.322658900481631,-0.9773769242657723,0.4352888864834893,2
1538158457.000355,512,0,73072.284953375,0.1652069091796875,1.052780151367188,-0.0116729736328125,,,,,2
1538158457.000897,513,0,73072.29473537501,0.146759033203125,0.9525146484375,-0.09881591796875,73072.291119375,-2.671284264036198,-1.753703828358193,0.9404471357457526,2
1538158457.010899,514,0,73072.304559375,0.10833740234375,0.87982177734375,-0.1571197509765625,73072.301123375,-2.691502450399861,-2.189476078579531,1.098005604789238,2
1538158457.018086,515,0,73072.31435637501,0.054718017578125,0.841094970703125,-0.1730499267578125,,,,,2
1538158457.029368,516,0,73072.324138375,-0.0464019775390625,0.8368682861328125,-0.15936279296875,73072.321138375,-2.498628867405271,-2.804199438248745,1.190902256249492,2
1538158457.037875,517,0,73072.333965375,-0.182464599609375,0.8673095703125,-0.1489105224609375,73072.331142375,-2.354315363727185,-2.805733152720521,1.146577934646758,2
1538158457.047088,518,0,73072.343746375,-0.2811126708984375,0.9100189208984375,-0.1441497802734375,,,,,2
1538158457.078278,519,0,73072.353563375,-0.3399810791015625,0.9464263916015625,-0.1277618408203125,73072.351157375,-2.062191093227521,-2.483429408115862,0.8935701742381778,2
1538158457.078987,520,0,73072.363373375,-0.339935302734375,0.9551849365234375,-0.07232666015625,73072.36116137501,-1.888964714858881,-2.262595563152638,0.7988607090239078,2
1538158457.079366,521,0,73072.373175375,-0.248443603515625,0.96954345703125,-0.0044403076171875,,,,,2
1538158457.089283,522,0,73072.382973375,-0.0746307373046875,0.957000732421875,0.0521392822265625,73072.38117537501,-1.478639235169359,-1.707038854473388,1.01838214820194,2
1538158457.0961,523,0,73072.39275737501,0.12249755859375,0.9379119873046875,0.1059722900390625,73072.391179375,-1.231452079639256,-1.557344433812797,1.408688912293446,2
1538158457.10633,524,0,73072.402582375,0.3133544921875,0.941192626953125,0.1668243408203125,,,,,2
1538158457.122378,525,0,73072.412384375,0.4666748046875,0.9865570068359375,0.2132720947265625,73072.401187375,-1.035604278339265,-1.542649377233849,2.0104464058795,2
1538158457.159601,526,0,73072.422188375,0.5102691650390625,1.013534545898438,0.214630126953125,73072.421177375,-1.214027016626867,-1.356140482928439,3.30602580667121,2
1538158457.160601,527,0,73072.43197237501,0.5013580322265625,1.01080322265625,0.1808013916015625,73072.43120637501,-1.416190770768091,-0.8132337894270655,3.37232839780204,2
1538158457.161078,528,0,73072.44176837501,0.509490966796875,0.961761474609375,0.104095458984375,,,,,2
1538158457.162063,529,0,73072.451596375,0.4850921630859375,0.8836822509765625,-0.0157470703125,73072.45120337501,-1.417960174996339,0.3758018572143894,2.716640294245229,2
1538158457.166093,530,0,73072.461381375,0.441009521484375,0.8616943359375,-0.129730224609375,73072.46122537501,-1.354297841770213,0.4118330951826165,2.473029497742993,2
1538158457.175052,531,0,73072.471202375,0.4037322998046875,0.8665924072265625,-0.1519927978515625,,,,,2
1538158457.192041,532,0,73072.481007375,0.3857421875,0.869384765625,-0.0640411376953125,73072.48123237501,-1.453868108606096,-0.1773662622831683,2.188756226136883,2
1538158457.196878,533,0,73072.49081037501,0.3682403564453125,0.8651580810546875,0.0499267578125,73072.491243375,-1.584515867466549,-0.08216464489945167,2.14621409193563,2
1538158457.203929,534,0,73072.500592375,0.3514251708984375,0.8559417724609375,0.1405487060546875,,,,,2
1538158457.238302,535,0,73072.510402375,0.3069305419921875,0.8318939208984375,0.198974609375,73072.511256375,-1.621495457098953,0.530796501076456,2.105005935124398,2
1538158457.239224,536,0,73072.52019937501,0.26824951171875,0.8158416748046875,0.2378997802734375,73072.521262375,-1.487216744408286,0.7213557970837678,2.064463568585686,2
1538158457.23967,537,0,73072.53001837501,0.20654296875,0.796417236328125,0.241424560546875,,,,,2
1538158457.245713,538,0,73072.539817375,0.1633148193359375,0.7801361083984375,0.2226715087890625,73072.54127437501,-1.319113222712522,1.041331139947371,2.022230627386991,2
1538158457.256294,539,0,73072.54961837501,0.1492462158203125,0.76995849609375,0.1824188232421875,73072.55128137501,-1.343463569823553,1.131304972111262,1.995734038753466,2
1538158457.262893,540,0,73072.55940737501,0.155364990234375,0.74444580078125,0.156890869140625,,,,,2
1538158457.274004,541,0,73072.569210375,0.184539794921875,0.6976165771484375,0.1864471435546875,73072.571293375,-1.349766206859334,1.001557628015365,1.840019542448751,2
1538158457.28455,542,0,73072.57904337501,0.20501708984375,0.666412353515625,0.23828125,,,,,2
1538158457.317941,543,0,73072.588833375,0.214874267578125,0.65240478515625,0.2474365234375,73072.58130037501,-1.288504447039805,0.9346923109462003,1.720751470926206,2
1538158457.318842,544,0,73072.598636375,0.2226104736328125,0.63641357421875,0.27130126953125,73072.60128837501,-1.102511939669762,0.6097632221389405,1.462992364816816,2
1538158457.319403,545,0,73072.608442375,0.2417755126953125,0.622222900390625,0.2728271484375,73072.611318375,-0.9829413330473838,0.4490627556413792,1.294949563193906,2
1538158457.321777,546,0,73072.618252375,0.2645263671875,0.593475341796875,0.2686920166015625,,,,,2
1538158457.331654,547,0,73072.628048375,0.2599945068359375,0.552978515625,0.2890167236328125,73072.621327375,-0.8529274065263696,0.2906187855354419,1.142978938749625,2
1538158457.34425,548,0,73072.637859375,0.28826904296875,0.5102386474609375,0.2866363525390625,73072.631331375,-0.691484983349112,0.1494704488129153,1.02955757108424,2
1538158457.353062,549,0,73072.64765737501,0.3021087646484375,0.46942138671875,0.2553253173828125,73072.641322375,-0.5781243357565812,0.131682396943949,0.8230864201959226,2
1538158457.400021,550,0,73072.65746037501,0.273529052734375,0.4520721435546875,0.2113037109375,73072.661349375,-0.4091382424755653,-0.1084977154420462,0.5485344855169287,2
1538158457.401097,551,0,73072.66727837501,0.29754638671875,0.428070068359375,0.2342071533203125,,,,,2
1538158457.401972,552,0,73072.67708337501,0.3568267822265625,0.3909454345703125,0.25677490234375,73072.671338375,-0.3065138625015799,-0.2006987492255705,0.4469282320276807,2
1538158457.402934,553,0,73072.68688737501,0.3809814453125,0.372589111328125,0.280364990234375,73072.681363375,-0.2417292731920943,-0.2391888838282677,0.2965845326933284,2
1538158457.403581,554,0,73072.696681375,0.4177703857421875,0.3650360107421875,0.3382568359375,73072.69136737501,-0.1571414180167795,-0.416186564616569,0.2039539310259743,2
1538158457.410329,555,0,73072.706494375,0.4461212158203125,0.3767547607421875,0.3748779296875,73072.70135837501,-0.06231157792123798,-0.5568824302698911,0.1377924874329178,2
1538158457.420018,556,0,73072.716298375,0.564117431640625,0.3831787109375,0.4417877197265625,73072.711383375,0.06516595397758491,-0.7103723881160631,0.1881981373848475,2
1538158457.429917,557,0,73072.72610137501,0.6003265380859375,0.3887481689453125,0.44775390625,73072.721387375,0.17140903724077,-0.6029391381617215,0.1043082967312425,2
1538158457.439595,558,0,73072.735904375,0.60894775390625,0.422149658203125,0.4689178466796875,73072.731388375,0.3281168926320846,-0.6656632397358128,0.1010584412530188,2
1538158457.450156,559,0,73072.745679375,0.592803955078125,0.461151123046875,0.4793701171875,73072.74140137501,0.4746035357596751,-0.6950906371489703,0.1432690118985568,2
1538158457.479232,560,0,73072.755511375,0.5710906982421875,0.5075225830078125,0.471466064453125,73072.75140537501,0.5390829268082376,-0.653473685110411,0.1745161472845655,2
1538158457.480064,561,0,73072.76531437501,0.56005859375,0.538055419921875,0.43206787109375,73072.76141037501,0.5060314997837002,-0.4457615011541169,0.1427843165801623,2
1538158457.480888,562,0,73072.77511237501,0.5559539794921875,0.542572021484375,0.3737945556640625,73072.771421375,0.4094929755327638,-0.08466588579525409,0.05277985806373538,2
1538158457.48867,563,0,73072.784919375,0.56689453125,0.53662109375,0.32635498046875,73072.78142537501,0.3206579110509907,0.2444654048960417,-0.05182218533574289,2
1538158457.498471,564,0,73072.79472237501,0.59295654296875,0.53564453125,0.3052520751953125,,,,,2
1538158457.508206,565,0,73072.80450137501,0.593780517578125,0.542816162109375,0.3229827880859375,73072.79141237501,0.271600353242859,0.3963707818936164,-0.1568165123637898,2
1538158457.517963,566,0,73072.81432837501,0.5620880126953125,0.5518035888671875,0.3644561767578125,73072.811443375,0.340968775420589,0.2622950020780132,-0.3170501267222604,2
1538158457.530055,567,0,73072.82413037501,0.5283966064453125,0.5642547607421875,0.419158935546875,,,,,2
1538158457.55995,568,0,73072.833927375,0.5192413330078125,0.570770263671875,0.4626617431640625,73072.83145937501,0.5599216297058895,-0.3895773242689333,-0.345070842447638,2
1538158457.560681,569,0,73072.84373537501,0.5365753173828125,0.57403564453125,0.4893341064453125,73072.84146337501,0.6700135133764572,-0.6473907588645611,-0.334547894032408,2
1538158457.561186,570,0,73072.853536375,0.575714111328125,0.5668792724609375,0.519134521484375,73072.85145237501,0.7659038242180682,-0.7788632987146119,-0.3165955251241838,2
1538158457.56602,571,0,73072.863319375,0.6161956787109375,0.6014251708984375,0.5625,,,,,2
1538158457.575792,572,0,73072.873115375,0.6321868896484375,0.7382354736328125,0.6675872802734375,73072.87147137501,0.6712694601465385,-0.6891608426657999,-0.2575074373863777,2
1538158457.586609,573,0,73072.882944375,0.652618408203125,0.97064208984375,0.8022003173828125,73072.88148937501,0.3046155612765714,-0.4432152528358922,-0.186399172068499,2
1538158457.596326,574,0,73072.89274537501,0.6893157958984375,1.143081665039062,0.812591552734375,,,,,2
1538158457.610236,575,0,73072.902548375,0.6740264892578125,1.135177612304688,0.6787567138671875,73072.901472375,-0.2432744392565583,0.3098598580951554,-0.01334456759016905,2
1538158457.638853,576,0,73072.912319375,0.6039886474609375,0.986663818359375,0.5742950439453125,73072.91150237501,-0.1693663926846792,0.3950197602726192,0.02299959180614232,2
1538158457.639652,577,0,73072.922152375,0.573455810546875,0.746490478515625,0.555267333984375,,,,,2
1538158457.640396,578,0,73072.93195537501,0.5347747802734375,0.5435333251953125,0.523101806640625,73072.93150637501,0.1564303540057283,0.2064708845722082,-0.2822966734450533,2
1538158457.645375,579,0,73072.94173837501,0.538238525390625,0.4778594970703125,0.451416015625,73072.941526375,0.1705807941417554,-0.09402423386579255,-0.4269300227700576,2
1538158457.655296,580,0,73072.951562375,0.5953826904296875,0.4672698974609375,0.384033203125,,,,,2
1538158457.66965,581,0,73072.96136437501,0.6845703125,0.4835052490234375,0.3767852783203125,73072.96151737501,0.08665766397452436,-1.085304723234542,-0.7026960925900186,2
1538158457.675359,582,0,73072.97115737501,0.6808929443359375,0.55865478515625,0.3525848388671875,73072.971546375,0.02670351625022452,-1.890074187769008,-0.8826592032521231,2
1538158457.684722,583,0,73072.980967375,0.6829833984375,0.646453857421875,0.40423583984375,,,,,2
1538158457.717979,584,0,73072.990769375,0.6324310302734375,0.7379150390625,0.4524688720703125,73072.991547375,0.4088681979410312,-1.790535346233989,-1.486807416548741,2
1538158457.718996,585,0,73073.00054537501,0.660980224609375,0.833038330078125,0.540435791015625,73073.00156037501,0.7004827394080537,-1.372833442957164,-1.629727820660606,2
1538158457.719493,586,0,73073.01037237501,0.727783203125,1.071075439453125,0.4638671875,,,,,2
1538158457.729458,587,0,73073.020175375,0.7977447509765625,1.329330444335938,0.313812255859375,73073.021576375,0.834253853594952,-1.266249741390558,-1.444830405130803,2
1538158457.735282,588,0,73073.029964375,0.8045501708984375,1.422836303710938,0.2509613037109375,73073.03158337501,0.8441964992086537,-0.7762672492840026,-1.470782909953625,2
1538158457.743593,589,0,73073.039779375,0.768341064453125,1.319320678710938,0.2145538330078125,,,,,2
1538158457.759194,590,0,73073.04949987501,0.72735595703125,1.175369262695312,0.2093353271484375,73073.05153887501,0.7847179920550421,-0.3771033440391111,-1.209087918069206,2
1538158457.765069,591,0,73073.059296875,0.645599365234375,1.015869140625,0.2005462646484375,73073.061544875,0.7332971450955741,-0.2203651286113696,-1.125554408369454,2
1538158457.797569,592,0,73073.069127875,0.5484619140625,0.8667449951171875,0.16571044921875,,,,,2
1538158457.798461,593,0,73073.078929875,0.47503662109375,0.741912841796875,0.1719207763671875,73073.08155687501,0.8057617583566302,-0.5756965981068649,-0.9846974214701821,2
1538158457.799389,594,0,73073.08872487501,0.4265594482421875,0.6670379638671875,0.200103759765625,73073.09156487501,0.9466413821251678,-0.8949145379564498,-0.9563502021951608,2
1538158457.802341,595,0,73073.09853287501,0.38037109375,0.646514892578125,0.2431793212890625,,,,,2
1538158457.818841,596,0,73073.108335875,0.349090576171875,0.6487274169921875,0.2642974853515625,73073.11157587501,1.295364217375631,-1.245546593392391,-1.108897401015444,2
1538158457.824706,597,0,73073.11813687501,0.333160400390625,0.683349609375,0.2325286865234375,73073.121567875,1.446082623475358,-1.322005681972457,-1.227176374509134,2
1538158457.831707,598,0,73073.127938875,0.33135986328125,0.743865966796875,0.176483154296875,,,,,2
1538158457.850168,599,0,73073.137739875,0.34979248046875,0.82843017578125,0.1231231689453125,73073.14159487501,1.621694661548491,-1.520604262362391,-1.357068594568331,2
1538158457.879142,600,0,73073.14754387501,0.3790435791015625,0.93157958984375,0.0737152099609375,73073.151579875,1.629212232673567,-1.678520393940275,-1.335561704553178,2
1538158457.879788,601,0,73073.15734587501,0.4113311767578125,1.033187866210938,0.0492401123046875,,,,,2
1538158457.880738,602,0,73073.16714587501,0.45513916015625,1.11260986328125,0.045318603515625,73073.17161387501,1.465639813256464,-1.702654492370791,-1.194284204517783,2
1538158457.88888,603,0,73073.176942875,0.488006591796875,1.141098022460938,0.05792236328125,,,,,2
1538158457.898793,604,0,73073.186737875,0.5074005126953125,1.117263793945312,0.0767059326171875,73073.191627875,0.9795394110709167,-0.9874625816300114,-1.102352948952684,2
1538158457.902106,605,0,73073.19653287501,0.516754150390625,1.051742553710938,0.098419189453125,73073.20163187501,0.7059869607490296,-0.5119780721817381,-1.106596962465834,2
1538158457.909572,606,0,73073.206329875,0.509429931640625,0.982177734375,0.10015869140625,,,,,2
1538158457.919546,607,0,73073.216152875,0.4795074462890625,0.91973876953125,0.0811309814453125,,,,,2
1538158457.95735,608,0,73073.22595587501,0.435302734375,0.8675689697265625,0.063507080078125,73073.231651875,0.3055945392932845,-0.03496011457779719,-1.186735740724062,2
1538158457.958269,609,0,73073.23573887501,0.3736572265625,0.826873779296875,0.0380401611328125,,,,,2
1538158457.958889,610,0,73073.24555787501,0.3063507080078125,0.7949371337890625,0.0178375244140625,,,,,2
1538158457.961311,611,0,73073.25534087501,0.2518310546875,0.772979736328125,-0.0006256103515625,73073.26166987501,0.4606416474288257,-0.583697799285899,-1.316340339385532,2
1538158457.968471,612,0,73073.26514987501,0.20819091796875,0.767303466796875,-0.01519775390625,,,,,2
1538158457.978494,613,0,73073.274952875,0.182464599609375,0.79327392578125,-0.0375518798828125,,,,,2
1538158457.990309,614,0,73073.28476587501,0.1711883544921875,0.84930419921875,-0.0550537109375,73073.28168487501,0.544911521169985,-0.5947589725574342,-1.240810427709794,2
1538158457.998224,615,0,73073.29455787501,0.187042236328125,0.8982086181640625,-0.0691070556640625,73073.291688875,0.5579887073867101,-0.4194113863805459,-1.2089635484463,2
1538158458.010905,616,0,73073.304364875,0.2202911376953125,0.9312896728515625,-0.083221435546875,,,,,2
1538158458.040885,617,0,73073.314170875,0.2513580322265625,0.958221435546875,-0.092926025390625,73073.31170387501,0.5565703077901338,-0.04366598818126621,-1.073288540396104,2
1538158458.0416,618,0,73073.323979875,0.296051025390625,0.9808349609375,-0.0982666015625,73073.321707875,0.5461067478672126,0.1240436519892747,-0.9457332441934508,2
1538158458.041978,619,0,73073.33378287501,0.344207763671875,0.9861297607421875,-0.1010284423828125,,,,,2
1538158458.050153,620,0,73073.34357887501,0.385498046875,0.978912353515625,-0.1013336181640625,73073.34172187501,0.4963860629476512,0.3630937851247493,-0.671015660894654,2
1538158458.057196,621,0,73073.35338487501,0.4146575927734375,0.958251953125,-0.0986328125,73073.35172587501,0.4816497273718067,0.3054539243877283,-0.5897580886624834,2
1538158458.066917,622,0,73073.363191875,0.4286041259765625,0.9206085205078125,-0.0899810791015625,,,,,2
1538158458.079036,623,0,73073.372993875,0.4198150634765625,0.8783416748046875,-0.071380615234375,73073.36173287501,0.4745774367809923,0.1091813488938695,-0.587291202544743,2
1538158458.117579,624,0,73073.38279487501,0.370361328125,0.84539794921875,-0.0456390380859375,73073.381717875,0.4577702271415022,-0.2770624966386115,-0.7113540292938663,2
1538158458.118494,625,0,73073.39257887501,0.285125732421875,0.8411407470703125,-0.0305328369140625,73073.39175387501,0.4264322779623218,-0.2467434728924955,-0.7651765149243677,2
1538158458.11895,626,0,73073.402400875,0.2125091552734375,0.8631744384765625,-0.0247650146484375,,,,,2
1538158458.119575,627,0,73073.412202875,0.159820556640625,0.9023590087890625,-0.044036865234375,73073.41174887501,0.247703808781578,0.09758488024322849,-0.8367191418160382,2
1538158458.125412,628,0,73073.421997875,0.1348724365234375,0.946807861328125,-0.0789642333984375,73073.42177087501,0.1721675055192246,0.2798170041540805,-0.8729570410848555,2
1538158458.135757,629,0,73073.431806875,0.1297760009765625,0.9801483154296875,-0.1061248779296875,,,,,2
1538158458.14839,630,0,73073.441610875,0.135345458984375,0.9946136474609375,-0.1220855712890625,73073.44177787501,0.1541453617904404,0.5520658371223739,-0.9252633891067747,2
1538158458.155618,631,0,73073.451385875,0.14971923828125,0.9888458251953125,-0.116241455078125,73073.45179187501,0.2081148539131141,0.6179606982903134,-0.9092229035451185,2
1538158458.164973,632,0,73073.461216875,0.1696929931640625,0.981170654296875,-0.095611572265625,,,,,2
1538158458.196624,633,0,73073.471020875,0.1984710693359375,0.97216796875,-0.071990966796875,73073.471776875,0.3253653145938147,0.6998236070382592,-0.7616006885287182,2
1538158458.197546,634,0,73073.480804875,0.2346954345703125,0.960052490234375,-0.0562286376953125,73073.48180987501,0.3776202636066955,0.6655202279852755,-0.6766351971108302,2
1538158458.198,635,0,73073.490624875,0.2611083984375,0.951141357421875,-0.0632476806640625,,,,,2
1538158458.208119,636,0,73073.50042687501,0.2905426025390625,0.9476318359375,-0.0760498046875,73073.50182087501,0.5119985785221317,0.2048399647206437,-0.4448528305901819,2
1538158458.215528,637,0,73073.510222875,0.3023834228515625,0.93255615234375,-0.098388671875,73073.51182887501,0.5485616497600476,-0.1538614688182379,-0.3277789374897536,2
1538158458.223752,638,0,73073.520033875,0.32135009765625,0.920745849609375,-0.1041717529296875,,,,,2
1538158458.23818,639,0,73073.52983487501,0.3173980712890625,0.921142578125,-0.0835418701171875,73073.531838875,0.4234207754016602,-0.4606605558725652,-0.2319309709094747,2
1538158458.245321,640,0,73073.539612875,0.28619384765625,0.9136199951171875,-0.0796966552734375,73073.541846875,0.3595075724008486,-0.4323159997586339,-0.1496922901317189,2
1538158458.277696,641,0,73073.54944087501,0.2582550048828125,0.9356689453125,-0.074554443359375,,,,,2
1538158458.278519,642,0,73073.55922587501,0.196533203125,0.9579925537109375,-0.0500640869140625,73073.561859875,0.2694037779757617,-0.4646497048693949,-0.09177226484802153,2
1538158458.278935,643,0,73073.569041875,0.1422576904296875,0.963897705078125,-0.024505615234375,,,,,2
1538158458.288312,644,0,73073.578849875,0.1106109619140625,0.97589111328125,-0.0131683349609375,73073.571865875,0.2377782073988527,-0.52948542687181,-0.1065261772870605,2
1538158458.302473,645,0,73073.588651875,0.082672119140625,0.9950408935546875,-0.01080322265625,73073.59187787501,0.1325934643528651,-0.5684765020755511,-0.2042695156151487,2
1538158458.306056,646,0,73073.59845587501,0.0758514404296875,0.9982147216796875,-0.0240325927734375,73073.601869875,0.09269025647577185,-0.5741434425591307,-0.2483203305739314,2
1538158458.311845,647,0,73073.60824687501,0.10113525390625,1.022293090820312,-0.0441741943359375,,,,,2
1538158458.327549,648,0,73073.61805987501,0.1156158447265625,1.048263549804688,-0.0589599609375,73073.621896875,0.04094769965662234,-0.536275422387076,-0.2896230296038613,2
1538158458.359522,649,0,73073.627862875,0.1261138916015625,1.052017211914062,-0.08782958984375,73073.631881875,0.05363340119310578,-0.563765370107201,-0.2775663667168545,2
1538158458.360191,650,0,73073.637664875,0.1146392822265625,1.008102416992188,-0.13702392578125,,,,,2
1538158458.36105,651,0,73073.64746187501,0.148590087890625,1.009857177734375,-0.103485107421875,73073.651915875,0.1633977160495936,-0.8178562381311161,-0.3267411036129497,2
1538158458.365782,652,0,73073.65726587501,0.1443328857421875,0.9793243408203125,-0.0846710205078125,73073.661900875,0.1523424017324567,-0.7868394661793991,-0.2993851128956557,2
1538158458.370811,653,0,73073.66707187501,0.148040771484375,0.9475250244140625,-0.0763702392578125,,,,,2
1538158458.387058,654,0,73073.676849875,0.1339874267578125,0.90350341796875,-0.0946807861328125,73073.68193387501,0.2154390795430501,-0.9908061803786059,-0.2013142057534878,2
1538158458.397116,655,0,73073.686678875,0.15667724609375,0.920928955078125,-0.04071044921875,,,,,2
1538158458.437456,656,0,73073.69648087501,0.1410369873046875,0.9340972900390625,-0.034027099609375,73073.70194887501,0.1740546214676547,-0.8940378253255957,-0.05862656192089534,2
1538158458.438287,657,0,73073.706258875,0.1281890869140625,0.943603515625,-0.0379180908203125,73073.711952875,0.146098886872875,-0.8641667452748309,-0.04208992944815732,2
1538158458.439273,658,0,73073.71608687501,0.113800048828125,0.93505859375,-0.0362396240234375,,,,,2
1538158458.439719,659,0,73073.72586187501,0.0938873291015625,0.901153564453125,-0.02752685546875,,,,,2
1538158458.441132,660,0,73073.735687875,0.06591796875,0.8720855712890625,-0.0247955322265625,73073.73195087501,0.1216398827893692,-0.7394676893412877,0.01958568560476974,2
1538158458.448749,661,0,73073.745483875,0.0467529296875,0.854034423828125,-0.0286407470703125,73073.741954875,0.1410287607895821,-0.6583661783489957,0.07351443136276531,2
1538158458.458586,662,0,73073.755274875,0.04986572265625,0.8365325927734375,-0.03387451171875,,,,,2
1538158458.469823,663,0,73073.765076875,0.0579833984375,0.841339111328125,-0.0495452880859375,73073.761970875,0.1341524788549975,-0.5478322099374749,0.09392330006047854,2
1538158458.478245,664,0,73073.77490287501,0.0639190673828125,0.8865203857421875,-0.047393798828125,73073.77197487501,0.1123678211381493,-0.6022584341870972,0.05681721027629551,2
1538158458.490025,665,0,73073.78470287501,0.0734710693359375,0.9790802001953125,-0.02716064453125,,,,,2
1538158458.517899,666,0,73073.794483875,0.072479248046875,1.078155517578125,-0.021484375,73073.791982875,0.1627159468105334,-0.9409118573559714,-0.08076568637883305,2
1538158458.518604,667,0,73073.80428387501,0.0271453857421875,1.139144897460938,-0.0366668701171875,73073.801986875,0.2029190266263695,-1.158382396178534,-0.193791308306232,2
1538158458.518981,668,0,73073.814114875,-0.039764404296875,1.095489501953125,-0.0480499267578125,,,,,2
1538158458.53061,669,0,73073.823891875,-0.06280517578125,1.009368896484375,-0.0682830810546875,73073.82200087501,0.2416424541405577,-1.302140897085447,-0.3713138981453878,2
1538158458.536783,670,0,73073.83369687501,-0.0460662841796875,0.9703369140625,-0.10546875,73073.832004875,0.2440973560333927,-1.07351517540487,-0.4358683903366906,2
1538158458.546765,671,0,73073.84351387501,0.0026092529296875,0.9767913818359375,-0.1622161865234375,,,,,2
1538158458.559171,672,0,73073.85331787501,0.063140869140625,1.014663696289062,-0.2009429931640625,73073.842035875,0.222093253842722,-0.7802678498735196,-0.5139445503306527,2
1538158458.59807,673,0,73073.86312987501,0.1446533203125,1.069931030273438,-0.21649169921875,73073.86202687501,0.1611851618159558,-0.7448059957463515,-0.5883527385552485,2
1538158458.598812,674,0,73073.87292587501,0.2351226806640625,1.120773315429688,-0.2024993896484375,73073.87205387501,0.1734564754868229,-0.9835935411983443,-0.5928265828704726,2
1538158458.599294,675,0,73073.88272587501,0.2959442138671875,1.162887573242188,-0.181793212890625,,,,,2
1538158458.599968,676,0,73073.89252787501,0.318939208984375,1.198410034179688,-0.1902923583984375,73073.892054875,0.3800064559434065,-1.430490614241271,-0.6001388242755032,2
1538158458.605699,677,0,73073.902343875,0.31591796875,1.222335815429688,-0.22711181640625,73073.90207387501,0.5700698713557455,-1.435202278841839,-0.6407738688201502,2
1538158458.618566,678,0,73073.91214087501,0.3117828369140625,1.236862182617188,-0.265533447265625,,,,,2
1538158458.625785,679,0,73073.921951875,0.3199920654296875,1.241714477539062,-0.2841949462890625,73073.922077875,0.9897728738756552,-0.7666843967335705,-0.8503239002447081,2
1538158458.635071,680,0,73073.931732875,0.32940673828125,1.218154907226562,-0.2922210693359375,73073.932091875,1.223035957962388,-0.2604150766645262,-0.9401685690957302,2
1538158458.645381,681,0,73073.941556875,0.3241729736328125,1.224990844726562,-0.2844390869140625,,,,,2
1538158458.678298,682,0,73073.95135987501,0.2897491455078125,1.320587158203125,-0.2538909912109375,73073.95209187501,1.626557593698976,0.09051978018735728,-0.8235964155446728,2
1538158458.679306,683,0,73073.96114887501,0.2287139892578125,1.524887084960938,-0.1895599365234375,73073.962110875,1.590868571930824,-0.2301077708272065,-0.725662128566426,2
1538158458.679696,684,0,73073.97096787501,0.18585205078125,1.70343017578125,-0.0920257568359375,,,,,2
1538158458.684456,685,0,73073.980768875,0.12750244140625,1.757415771484375,-0.013336181640625,73073.98212087501,0.9981298733763238,-0.5796718986660262,-0.6982147914237423,2
1538158458.696301,686,0,73073.99054087501,0.046875,1.6121826171875,-0.0400848388671875,73073.992129875,0.6917843226556369,-0.2833779168476255,-0.6897291612424228,2
1538158458.704089,687,0,73074.000372875,-0.056365966796875,1.411270141601562,-0.13897705078125,,,,,2
1538158458.713844,688,0,73074.01017787501,-0.1596832275390625,1.23126220703125,-0.2166290283203125,73074.002115875,0.4410162807238138,-0.08579426714912067,-0.680997987608598,2
1538158458.724268,689,0,73074.019976875,-0.2340087890625,1.10791015625,-0.240142822265625,73074.012119875,0.2210535557531551,-0.1106732517365319,-0.6287270596291767,2
1538158458.757392,690,0,73074.02978187501,-0.250946044921875,1.040863037109375,-0.2315216064453125,73074.02214887501,0.05395138262726124,-0.2264336737873332,-0.5304819817517177,2
1538158458.758229,691,0,73074.039584875,-0.1943206787109375,1.005996704101562,-0.1503753662109375,73074.04214787501,-0.219976040776109,-0.05327707023925318,-0.2831392976139543,2
1538158458.758739,692,0,73074.04938187501,-0.1018524169921875,1.03082275390625,-0.086212158203125,,,,,2
1538158458.764222,693,0,73074.05919087501,-0.0446624755859375,1.092056274414062,-0.0891571044921875,73074.05216787501,-0.4098519696477065,0.2960748036606872,-0.1449361507409463,2
1538158458.7743,694,0,73074.06899287501,-0.0147857666015625,1.1107177734375,-0.1207427978515625,73074.07217887501,-0.7130970682273231,0.3689910890426207,0.1646560596646561,2
1538158458.783886,695,0,73074.07879287501,-0.0095977783203125,1.066375732421875,-0.1522369384765625,,,,,2
1538158458.794704,696,0,73074.088599875,-0.00067138671875,1.030059814453125,-0.16595458984375,73074.082185875,-0.8558446331844424,-0.04366572186515721,0.4092189362565947,2
1538158458.839689,697,0,73074.098401875,0.0600128173828125,1.040618896484375,-0.1696624755859375,73074.10219787501,-1.368118582563288,-1.343533610960222,0.9752320143238226,2
1538158458.840311,698,0,73074.10820287501,0.12481689453125,1.061843872070312,-0.183013916015625,,,,,2
1538158458.841145,699,0,73074.118005875,0.1656494140625,1.04400634765625,-0.1857147216796875,73074.112182875,-1.71423791153209,-1.964492229689637,1.168131696297096,2
1538158458.841825,700,0,73074.127807875,0.1620941162109375,1.011260986328125,-0.1666259765625,73074.12221287501,-2.026025365624245,-2.47016340377785,1.321095147195759,2
1538158458.842398,701,0,73074.137609875,0.1368255615234375,0.987945556640625,-0.1258544921875,73074.132216875,-2.248646457995021,-2.821000788933837,1.470613532908296,2
1538158458.854824,702,0,73074.147411875,0.091033935546875,0.99444580078125,-0.0703125,73074.14221987501,-2.359319443415444,-3.035322938715707,1.586159304175237,2
1538158458.868878,703,0,73074.15721387501,0.0191497802734375,1.029220581054688,-0.02490234375,73074.162235875,-2.218288019464772,-3.052686216390806,1.551509447864434,2
1538158458.874509,704,0,73074.166991875,-0.0615386962890625,1.061325073242188,0.0149383544921875,73074.172218875,-1.927250851322078,-2.857822453113599,1.407060122970754,2
1538158458.880392,705,0,73074.17681787501,-0.1388397216796875,1.068435668945312,0.0527191162109375,,,,,2
1538158458.919813,706,0,73074.186614875,-0.208251953125,1.053543090820312,0.0602264404296875,73074.18224987501,-1.565272930694072,-2.518623348237368,1.27077791419202,2
1538158458.920941,707,0,73074.196420875,-0.2564849853515625,1.01446533203125,0.034210205078125,73074.19225387501,-1.222149125319391,-2.08882909571493,1.1794373477567,2
1538158458.922069,708,0,73074.206224875,-0.290740966796875,0.9881591796875,0.01397705078125,73074.20224687501,-0.9666577008782034,-1.663002154268383,1.113864995396769,2
1538158458.922805,709,0,73074.21602187501,-0.3143157958984375,0.9914093017578125,0.0046539306640625,73074.22227287501,-0.8120004795262498,-0.9774501611957495,0.8929461955947722,2
1538158458.929407,710,0,73074.225826875,-0.341217041015625,1.006698608398438,-0.0157318115234375,,,,,2
1538158458.939285,711,0,73074.23562787501,-0.3451080322265625,1.017822265625,-0.05340576171875,,,,,2
1538158458.950467,712,0,73074.245399875,-0.3275909423828125,1.025527954101562,-0.116485595703125,73074.24228787501,-0.9857882522526786,-0.7872304182274228,0.7927783154102759,2
1538158458.959363,713,0,73074.255232875,-0.2906951904296875,1.041717529296875,-0.1739349365234375,73074.252291875,-1.045692332548485,-0.9854486992136935,0.9332294365594198,2
1538158458.970001,714,0,73074.26503387501,-0.214599609375,1.044677734375,-0.194122314453125,,,,,2
1538158458.999187,715,0,73074.27482987501,-0.160736083984375,1.031036376953125,-0.186981201171875,73074.262299875,-1.049387202244861,-1.285253259981037,1.109114714960395,2
1538158459.00014,716,0,73074.284636875,-0.104248046875,1.007095336914062,-0.18487548828125,73074.282310875,-0.7704690149586821,-1.528621442507966,1.326895778366061,2
1538158459.000558,717,0,73074.29444287501,-0.054656982421875,0.99664306640625,-0.187255859375,,,,,2
1538158459.010983,718,0,73074.304238875,0.0037078857421875,1.015487670898438,-0.1815032958984375,73074.30232487501,-0.3122492462251745,-1.414577427779721,1.537438103612782,2
1538158459.017734,719,0,73074.314047875,0.0725860595703125,1.047088623046875,-0.1534423828125,73074.31232887501,-0.2904081294932166,-1.579824442890265,1.692330748405099,2
1538158459.02738,720,0,73074.323851875,0.1234283447265625,1.042282104492188,-0.0997772216796875,,,,,2
1538158459.039787,721,0,73074.33365487501,0.1585693359375,0.99566650390625,-0.02447509765625,73074.332315875,-0.5944569700898191,-1.883332395469473,1.788450890048784,2
1538158459.047156,722,0,73074.34345687501,0.1669464111328125,0.9656219482421875,0.037261962890625,73074.34231987501,-0.8013936415366822,-1.668627815755066,1.695217615026745,2
1538158459.078321,723,0,73074.35324187501,0.142669677734375,0.953125,0.0690765380859375,,,,,2
1538158459.079001,724,0,73074.36306287501,0.088470458984375,0.95135498046875,0.089385986328125,73074.352355875,-1.087649902890465,-1.369497034743513,1.544067244198207,2
1538158459.084679,725,0,73074.372866875,0.0121917724609375,0.927886962890625,0.1227874755859375,73074.372349875,-1.875632930441945,-1.112874565787369,0.9874756311193528,2
1538158459.087899,726,0,73074.382659875,-0.0700225830078125,0.8628387451171875,0.1726531982421875,73074.38237387501,-2.238831111481425,-1.01281214678204,0.63565740373389,2
1538158459.095884,727,0,73074.39246987501,-0.149566650390625,0.7687530517578125,0.2354278564453125,,,,,2
1538158459.113112,728,0,73074.40227787501,-0.2197113037109375,0.6916046142578125,0.285308837890625,73074.402370875,-2.438310931876066,-0.6954565554827472,0.2689691500858608,2
1538158459.116701,729,0,73074.41207987501,-0.2755584716796875,0.64190673828125,0.2827606201171875,73074.412393875,-2.20403957500063,-0.6510954822569703,0.261448383167477,2
1538158459.125519,730,0,73074.421882875,-0.278656005859375,0.6351318359375,0.2362823486328125,,,,,2
1538158459.159065,731,0,73074.431684875,-0.25274658203125,0.649078369140625,0.170501708984375,73074.432376875,-1.565019930390515,-0.694981447544277,0.2608704772109298,2
1538158459.159798,732,0,73074.441467875,-0.2000579833984375,0.6820831298828125,0.094879150390625,73074.44241287501,-1.292028874426416,-0.6922330652993153,0.229553300688252,2
1538158459.160207,733,0,73074.451259875,-0.129852294921875,0.7240753173828125,0.0170135498046875,,,,,2
1538158459.172609,734,0,73074.46106087501,-0.058441162109375,0.759490966796875,-0.049102783203125,73074.46242387501,-1.092012693388233,-0.5170916077907992,0.1290687706501452,2
1538158459.178409,735,0,73074.470867875,0.0044403076171875,0.774322509765625,-0.09423828125,73074.472419875,-1.15522655028679,-0.3872087087954168,0.05286241605752784,2
1538158459.184169,736,0,73074.48066887501,0.0680084228515625,0.7784423828125,-0.11236572265625,,,,,2
1538158459.203221,737,0,73074.490476875,0.097381591796875,0.75714111328125,-0.111968994140625,73074.49244287501,-1.293884032441766,-0.2811339373131247,-0.2029376687540001,2
1538158459.237527,738,0,73074.500284875,0.101226806640625,0.7202606201171875,-0.1016693115234375,73074.502449875,-1.246497341901549,-0.4499967262356699,-0.2171658731938574,2
1538158459.238139,739,0,73074.51007787501,0.15045166015625,0.7052764892578125,-0.06201171875,,,,,2
1538158459.238824,740,0,73074.519896875,0.1784820556640625,0.6869354248046875,-0.019287109375,73074.52246187501,-1.033717162390835,-0.6199388943480243,-0.3436958523768301,2
1538158459.239311,741,0,73074.529896875,0.202728271484375,0.668975830078125,0.0145416259765625,,,,,2
1538158459.23969,742,0,73074.539647875,0.22894287109375,0.6665496826171875,0.0587310791015625,,,,,2
1538158459.252217,743,0,73074.549458875,0.2425537109375,0.6652069091796875,0.0970001220703125,73074.532467875,-0.8954868512747078,-0.6873727963099207,-0.4014387774480372,2
1538158459.265843,744,0,73074.559260875,0.2592010498046875,0.659393310546875,0.1317138671875,73074.55246587501,-0.5902379902909156,-0.729360993004437,-0.4502023222718241,2
1538158459.266665,745,0,73074.569043875,0.2606048583984375,0.6454925537109375,0.154693603515625,,,,,2
1538158459.275456,746,0,73074.578831875,0.258575439453125,0.636199951171875,0.167633056640625,73074.562473875,-0.4410423797024965,-0.729528772153112,-0.4593263121664355,2
1538158459.284975,747,0,73074.588658875,0.2568817138671875,0.6322174072265625,0.181060791015625,73074.582499875,-0.06555317760008243,-0.8279986208265738,-0.4099877908633006,2
1538158459.317448,748,0,73074.598439875,0.2356719970703125,0.6294708251953125,0.1884765625,,,,,2
1538158459.318123,749,0,73074.60825087501,0.27410888671875,0.642242431640625,0.22418212890625,73074.592482875,0.1216808954701564,-0.8682427133231972,-0.3885876936078598,2
1538158459.326852,750,0,73074.618045875,0.3016510009765625,0.6494903564453125,0.2598876953125,73074.61251787501,0.4108202950200593,-0.7882821005418951,-0.4469559289030175,2
1538158459.328327,751,0,73074.627858875,0.3152618408203125,0.6694488525390625,0.2845916748046875,,,,,2
1538158459.333725,752,0,73074.637666875,0.348602294921875,0.709869384765625,0.3125457763671875,73074.622509875,0.5227481619461276,-0.6355452846519977,-0.5673537133599738,2
1538158459.344556,753,0,73074.64746987501,0.3975067138671875,0.7652587890625,0.34130859375,73074.642537875,0.6606184136828757,-0.3983324663525687,-0.7328697077406164,2
1538158459.355079,754,0,73074.657274875,0.45220947265625,0.816802978515625,0.3684234619140625,,,,,2
1538158459.400367,755,0,73074.66705787501,0.4730072021484375,0.857330322265625,0.365325927734375,73074.652513875,0.6901155859165933,-0.3013963321508836,-0.8089437032270569,2
1538158459.400959,756,0,73074.676855875,0.549102783203125,0.93621826171875,0.4334716796875,,,,,2
1538158459.401538,757,0,73074.686670875,0.6317901611328125,1.01739501953125,0.55804443359375,73074.672555875,0.7383331827169139,-0.6049687332284709,-0.6964262124356451,2
1538158459.402383,758,0,73074.69647387501,0.708404541015625,1.080368041992188,0.6674957275390625,73074.682544875,0.6784701151018948,-0.8169893791962952,-0.5569364924400197,2
1538158459.40335,759,0,73074.706274875,0.77789306640625,1.113967895507812,0.7461700439453125,73074.69257087501,0.5296777071025137,-0.9173274353744476,-0.392560331005931,2
1538158459.412391,760,0,73074.716079875,0.8150177001953125,1.112655639648438,0.7843017578125,73074.702574875,0.3409916786059637,-1.034248995660523,-0.1858497619356157,2
1538158459.42308,761,0,73074.725879875,0.80389404296875,1.085586547851562,0.7752227783203125,73074.71256887501,0.1786757385911602,-1.146772079090224,0.04027658306192237,2
1538158459.431774,762,0,73074.735681875,0.76531982421875,1.084564208984375,0.7311553955078125,73074.72258887501,0.0696693593809089,-1.077136808171268,0.2304209585713998,2
1538158459.442339,763,0,73074.745495875,0.664825439453125,1.098663330078125,0.6510772705078125,73074.73259287501,0.002100701467854503,-0.7528639222566043,0.2997451722750344,2
1538158459.480538,764,0,73074.75529287501,0.51953125,1.093307495117188,0.58502197265625,73074.74258587501,-0.0798596789759881,-0.2619708953733506,0.1290051211000924,2
1538158459.485149,765,0,73074.765078875,0.389129638671875,1.054000854492188,0.511077880859375,73074.75260787501,-0.1644603173245353,0.006038451455645665,-0.04861201095776137,2
1538158459.486062,766,0,73074.774901875,0.2586212158203125,0.995330810546875,0.4239501953125,73074.762611875,-0.2138012354726513,0.06066707594811405,-0.1145217858278054,2
1538158459.48669,767,0,73074.78470287501,0.114593505859375,0.9587249755859375,0.385284423828125,73074.77259987501,-0.2393958114449669,-0.05795677690674041,-0.09151846559613699,2
1538158459.493088,768,0,73074.794493875,-0.004180908203125,0.8786468505859375,0.3723297119140625,73074.782627875,-0.3151856476430959,-0.3586846556240141,-0.02610883237880983,2
1538158459.500917,769,0,73074.80430287501,-0.1175689697265625,0.77374267578125,0.349761962890625,73074.79263187501,-0.3756846781264259,-0.6787603996607134,0.01190060164712808,2
1538158459.510591,770,0,73074.814105875,-0.2452545166015625,0.7606201171875,0.3303070068359375,73074.80262087501,-0.0980927450631066,-0.727110089251102,-0.03816416368527151,2
1538158459.520823,771,0,73074.823887875,-0.3897247314453125,0.8665008544921875,0.332733154296875,73074.812645875,0.4848801417740728,-0.4788113302820003,-0.1192901757595923,2
1538158459.556657,772,0,73074.833708875,-0.509521484375,1.085372924804688,0.3578643798828125,73074.822649875,1.126114471146698,-0.1484355444133105,-0.2750182541858667,2
1538158459.561011,773,0,73074.843510875,-0.5279388427734375,1.438552856445312,0.307098388671875,,,,,2
1538158459.562004,774,0,73074.853305875,-0.468658447265625,1.74786376953125,0.1116790771484375,73074.842664875,1.653450194386596,-0.4183666282849078,-1.015545881641006,2
1538158459.562637,775,0,73074.863112875,-0.3101959228515625,1.939102172851562,-0.15240478515625,73074.852668875,1.375351728083943,-0.7170982014490581,-1.463651230870502,2
1538158459.569361,776,0,73074.87291587501,-0.0511016845703125,1.930587768554688,-0.4675140380859375,,,,,2
1538158459.583772,777,0,73074.88271387501,0.1147308349609375,1.621337890625,-0.68402099609375,73074.88268387501,1.120874968018076,-0.9201000523853291,0.7866045753712542,2
1538158459.592089,778,0,73074.89248187501,0.158477783203125,1.24908447265625,-0.7140350341796875,,,,,2
1538158459.6005,779,0,73074.90228587501,0.1266632080078125,0.954254150390625,-0.6427764892578125,73074.892677875,0.952158386639376,-1.244083719005611,1.21988916681835,2
1538158459.640911,780,0,73074.91206687501,0.05487060546875,0.7127838134765625,-0.55218505859375,73074.90270187501,0.7284640403492983,-1.811600417824297,0.9799958768817563,2
