loggingTime,loggingSample,identifierForVendor,accelerometerTimestamp_sinceReboot,accelerometerAccelerationX,accelerometerAccelerationY,accelerometerAccelerationZ,gyroTimestamp_sinceReboot,gyroRotationX,gyroRotationY,gyroRotationZ,label
1538158225.609927,1,0,72840.828916125,-0.22027587890625,-0.3697967529296875,-0.8204345703125,72840.83272412501,-0.3418854354677943,0.2399787774075852,-0.9738200063138625,3
1538158225.610844,2,0,72840.838711125,-0.2305145263671875,-0.3652191162109375,-0.8087158203125,,,,,3
1538158225.611328,3,0,72840.848522125,-0.2720489501953125,-0.3730621337890625,-0.7930908203125,,,,,3
1538158225.611927,4,0,72840.85830412501,-0.321441650390625,-0.3810882568359375,-0.777008056640625,72840.85273912501,0.2020487055821316,-0.1134402761091242,-1.0678751328483,3
1538158225.612587,5,0,72840.868124125,-0.2947540283203125,-0.42529296875,-0.799560546875,72840.86274312501,0.3178269708122364,0.03227911030841441,-0.8983726526319177,3
1538158225.612976,6,0,72840.877926125,-0.2320404052734375,-0.49169921875,-0.8802032470703125,,,,,3
1538158225.613631,7,0,72840.88771012501,-0.178070068359375,-0.52642822265625,-0.949310302734375,72840.88275812501,-0.1127033794354993,0.4732016477618574,-0.861347522944873,3
1538158225.614225,8,0,72840.897528125,-0.13671875,-0.5346527099609375,-0.9775238037109375,72840.892762125,-0.4374524385530697,0.2303099047539435,-0.9939055672552402,3
1538158225.619975,9,0,72840.90732912501,-0.131317138671875,-0.548004150390625,-0.9835662841796875,,,,,3
1538158225.647992,10,0,72840.917118125,-0.1418609619140625,-0.547332763671875,-0.987823486328125,72840.91277712501,-0.7370415495882255,-0.4915332508093088,-0.9286932742746878,3
1538158225.648724,11,0,72840.92693112501,-0.13916015625,-0.531158447265625,-0.9736328125,72840.922781125,-0.5715878731770907,-0.6535852715600854,-0.7627631583445378,3
1538158225.649328,12,0,72840.936732125,-0.1589202880859375,-0.4715118408203125,-0.9584197998046875,,,,,3
1538158225.658274,13,0,72840.946528125,-0.0792083740234375,-0.46112060546875,-0.945892333984375,72840.932766125,-0.2858525261325271,-0.653569026277436,-0.6202574084143978,3
1538158225.667105,14,0,72840.95633512501,-0.1705169677734375,-0.4301300048828125,-1.046875,72840.95280112501,0.3402033829233002,-0.4917724026751979,-0.6406257970635418,3
1538158225.676774,15,0,72840.96613512501,-0.146392822265625,-0.3675537109375,-0.9998931884765625,,,,,3
1538158225.688611,16,0,72840.975936125,-0.100006103515625,-0.305511474609375,-0.9502410888671875,72840.96279612501,0.5292228391883282,-0.7996338246883579,-0.8878273336635309,3
1538158225.696412,17,0,72840.985738125,-0.0420684814453125,-0.316558837890625,-0.87115478515625,72840.98280112501,0.3349739998068206,-0.8202003525226038,-1.190127010056169,3
1538158225.726637,18,0,72840.995540125,-0.062652587890625,-0.41131591796875,-0.7646026611328125,,,,,3
1538158225.727353,19,0,72841.005342125,-0.107421875,-0.369873046875,-0.7196807861328125,72840.992816125,0.1310381782762588,-0.6544143136074271,-1.174284131047397,3
1538158225.728017,20,0,72841.015141125,0.0511474609375,-0.147216796875,-0.423095703125,72841.012833125,-0.341507266593003,-0.4525773293319567,-1.058114913769268,3
1538158225.735658,21,0,72841.02494412501,0.021270751953125,-0.172393798828125,-0.4072113037109375,,,,,3
1538158225.749771,22,0,72841.03474412501,0.02392578125,-0.354766845703125,-0.4914398193359375,72841.02284612501,-0.6614839410371515,1.042513849787475,-1.439144556203483,3
1538158225.76209,23,0,72841.044545125,-0.1887359619140625,-0.533111572265625,-1.213027954101562,72841.04283212501,-0.07320337414744406,3.416831683830027,-2.047607623098247,3
1538158225.765814,24,0,72841.05431812501,-0.11505126953125,-0.5565032958984375,-0.9602813720703125,72841.052845125,0.7880256381289205,2.982842952590715,-1.869306324956352,3
1538158225.774798,25,0,72841.064145125,-0.0355224609375,-0.462738037109375,-0.8805084228515625,,,,,3
1538158225.807247,26,0,72841.073951125,-0.0623931884765625,-0.4906463623046875,-1.135086059570312,72841.072860125,1.673587953285339,3.354326494097541,-0.7048508562280017,3
1538158225.808021,27,0,72841.08373712501,-0.0993194580078125,-0.423065185546875,-0.8723297119140625,72841.082884125,1.534142708079918,2.697705218894765,-0.08657270913575084,3
1538158225.808836,28,0,72841.093555125,-0.09857177734375,-0.3802947998046875,-0.663055419921875,,,,,3
1538158225.814072,29,0,72841.10335612501,-0.1139984130859375,-0.4878692626953125,-0.683013916015625,72841.10289712501,0.2330862501903511,1.359216167671371,0.3778828512901773,3
1538158225.823652,30,0,72841.113148125,-0.141693115234375,-0.596405029296875,-0.6982421875,,,,,3
1538158225.838552,31,0,72841.122959125,-0.1543426513671875,-0.673370361328125,-0.7295074462890625,72841.112903125,-0.3820512310283694,0.1878242295678004,0.4613492493304597,3
1538158225.851072,32,0,72841.13276012501,-0.1803436279296875,-0.6981201171875,-0.727752685546875,72841.132916125,-1.616273530833526,-1.893906210261523,0.3886811705621216,3
1538158225.856224,33,0,72841.14253312501,-0.2000274658203125,-0.6648406982421875,-0.6484375,72841.14290212501,-2.045201190737252,-2.656022220461172,0.3292753677062691,3
1538158225.886315,34,0,72841.15236212501,-0.2115936279296875,-0.60772705078125,-0.6547393798828125,,,,,3
1538158225.887143,35,0,72841.162163125,-0.228515625,-0.5352935791015625,-0.7145843505859375,72841.16293612501,-2.348810077121773,-3.697059081108089,0.1730945518946811,3
1538158225.887553,36,0,72841.17195812501,-0.24517822265625,-0.463470458984375,-0.702789306640625,,,,,3
1538158225.898199,37,0,72841.18176412501,-0.35498046875,-0.4092254638671875,-0.6610565185546875,72841.17294212501,-2.352291893930943,-4.237322587227559,0.03114646789680372,3
1538158225.912107,38,0,72841.191555125,-0.4219207763671875,-0.3932647705078125,-0.5762939453125,72841.19295512501,-2.23652641187407,0.4564607508335103,-0.7348934438529676,3
1538158225.915792,39,0,72841.20136612501,-0.323089599609375,-0.2781982421875,-0.5101470947265625,72841.20296012501,-1.775681298937963,1.199475504430674,-1.523131868552985,3
1538158225.921871,40,0,72841.211169125,-0.20306396484375,0.0316009521484375,-0.743194580078125,,,,,3
1538158225.965008,41,0,72841.22097012501,0.1540679931640625,0.257965087890625,-0.811798095703125,72841.22295512501,-1.239529447225466,0.992325513780496,-3.577766242187407,3
1538158225.96579,42,0,72841.23076812501,0.29241943359375,0.2489776611328125,-0.3294219970703125,,,,,3
1538158225.966414,43,0,72841.24056812501,0.0096435546875,0.01800537109375,-0.33184814453125,72841.24298912501,-0.005472263407894818,2.502916823076407,-5.357926445446664,3
1538158225.966908,44,0,72841.250367125,-0.5252685546875,-0.3519744873046875,-0.7875518798828125,72841.252993125,0.9369815642192324,2.455196438451605,-4.927046155831692,3
1538158225.970413,45,0,72841.260159125,-0.35150146484375,-0.435333251953125,-0.908935546875,,,,,3
1538158225.988258,46,0,72841.269956125,-0.031402587890625,-0.2502288818359375,-0.8827056884765625,72841.26298912501,1.399812330064103,2.202830766181843,-4.512330721401283,3
1538158226.00098,47,0,72841.279752125,0.022796630859375,-0.0939788818359375,-0.84820556640625,72841.283012125,1.04923433679829,0.9798965409730963,-4.116778595226758,3
1538158226.001501,48,0,72841.289573125,-0.0155487060546875,-0.0217742919921875,-0.6976318359375,,,,,3
1538158226.00985,49,0,72841.299375125,0.04656982421875,-0.107574462890625,-0.6651153564453125,72841.293018125,0.6187806855899488,0.8386632494117962,-4.158487692639033,3
1538158226.047233,50,0,72841.30917412501,0.0225067138671875,-0.264007568359375,-0.664581298828125,72841.313031125,0.1256463423332844,0.2628492059008586,-4.394687977092014,3
1538158226.048364,51,0,72841.318958125,-0.0368499755859375,-0.2900390625,-0.70159912109375,,,,,3
1538158226.049936,52,0,72841.328777125,-0.0342864990234375,-0.1077728271484375,-0.4501800537109375,72841.323038125,-0.1132088474103964,0.1693506800342478,-4.182274781179512,3
1538158226.060537,53,0,72841.33855912501,-0.0104217529296875,0.024017333984375,-0.27593994140625,72841.343051125,0.03850398304036563,1.602776097796786,-3.696039889358916,3
1538158226.061058,54,0,72841.34837812501,-0.0406646728515625,-0.059051513671875,-0.222137451171875,,,,,3
1538158226.06829,55,0,72841.358171125,0.17193603515625,-0.113800048828125,-0.0599517822265625,72841.353046125,0.2398847678211054,2.851338721123692,-3.23347890173247,3
1538158226.080572,56,0,72841.367983125,0.2870025634765625,-0.164337158203125,-0.0892333984375,72841.363065125,0.5608036686589238,4.499820788496745,-2.774826635637933,3
1538158226.088209,57,0,72841.37777212501,0.1992645263671875,-0.170684814453125,-0.4884796142578125,72841.37306912501,1.10883162093652,5.902157795274244,-2.298146633176324,3
1538158226.099487,58,0,72841.38757412501,0.65606689453125,-0.132232666015625,-0.1842498779296875,,,,,3
1538158226.128061,59,0,72841.397371125,0.7664947509765625,-0.0644378662109375,-0.38836669921875,72841.393085125,2.335565111756373,8.609060240993598,-1.474831181126654,3
1538158226.128685,60,0,72841.407179125,0.8138580322265625,0.08673095703125,-0.6660919189453125,,,,,3
1538158226.129453,61,0,72841.416983125,0.931243896484375,0.2183837890625,-0.696380615234375,72841.403089125,2.789925427438138,8.590387753326615,-1.273986490673348,3
1538158226.140267,62,0,72841.426779125,0.9309844970703125,0.27008056640625,-0.696197509765625,72841.423104125,2.957414824186529,7.987297347614978,-1.794083209438192,3
1538158226.14727,63,0,72841.436600125,1.0155029296875,0.283111572265625,-0.6751251220703125,72841.433108125,2.92469416176938,6.927685737313085,-2.236090186087516,3
1538158226.156868,64,0,72841.44637812501,1.028457641601562,0.19451904296875,-0.58837890625,,,,,3
1538158226.168848,65,0,72841.45620512501,1.011077880859375,0.1260833740234375,-0.5288848876953125,72841.44311612501,2.738786342922,6.325881105775736,-2.511564639768113,3
1538158226.178957,66,0,72841.46600712501,0.98095703125,0.2215423583984375,-0.4976043701171875,72841.463109125,2.58223028771282,4.473929536378995,-3.051176204052731,3
1538158226.207729,67,0,72841.475810125,1.054214477539062,0.2589263916015625,-0.3737030029296875,,,,,3
1538158226.208545,68,0,72841.485611125,1.103607177734375,0.163421630859375,-0.274688720703125,72841.47313512501,2.676599933571996,3.500979052161043,-3.28156786785214,3
1538158226.209209,69,0,72841.495396125,1.135665893554688,0.1337432861328125,-0.244537353515625,72841.49311912501,3.154850934760644,2.393304042085945,-3.361042986366721,3
1538158226.215502,70,0,72841.505215125,1.08349609375,0.1055145263671875,-0.1772003173828125,,,,,3
1538158226.227997,71,0,72841.51501812501,1.05126953125,0.1181640625,-0.1123046875,72841.50315412501,3.342029081447991,2.097127239355508,-3.121430926241239,3
1538158226.235479,72,0,72841.52482212501,1.052658081054688,0.2254486083984375,-0.0134429931640625,72841.52314812501,3.466063678689559,2.171639290862617,-2.236378073801353,3
1538158226.244788,73,0,72841.534604125,1.044631958007812,0.3554840087890625,0.095855712890625,,,,,3
1538158226.259089,74,0,72841.544427125,1.027496337890625,0.4409027099609375,0.143951416015625,72841.533173125,3.497239707674463,2.561115681326236,-1.984335709287927,3
1538158226.286686,75,0,72841.554227125,1.030120849609375,0.533355712890625,0.1044464111328125,72841.553172125,3.47595572424255,3.601129621798454,-2.331183679130975,3
1538158226.287308,76,0,72841.56402212501,1.242431640625,0.7051544189453125,-0.0247955322265625,,,,,3
1538158226.287794,77,0,72841.57383012501,1.443344116210938,0.578277587890625,0.182769775390625,72841.563192125,3.176196703529847,3.51064393007305,-2.870574467361226,3
1538158226.303122,78,0,72841.583631125,1.818405151367188,0.3905792236328125,0.0820465087890625,72841.583199125,3.811438920449794,3.767093826190557,-3.472241147154107,3
1538158226.307515,79,0,72841.593406125,2.062850952148438,0.234130859375,-0.0721893310546875,72841.593213125,4.501128400591974,3.151981378686083,-3.511694280806977,3
1538158226.313968,80,0,72841.60323412501,2.196487426757812,-0.037322998046875,-0.0790557861328125,,,,,3
1538158226.32762,81,0,72841.61303612501,2.2535400390625,-0.28533935546875,0.050323486328125,72841.61321512501,5.465236923674754,0.9700258007088266,-3.005963451910347,3
1538158226.339444,82,0,72841.622827125,2.133270263671875,-0.421539306640625,0.273529052734375,72841.62321812501,5.365043477143793,0.1378055369222592,-2.687492528746529,3
1538158226.369777,83,0,72841.632641125,1.99365234375,-0.4808349609375,0.4537353515625,,,,,3
1538158226.370602,84,0,72841.64244312501,1.907546997070312,-0.466094970703125,0.566741943359375,72841.643232125,3.8863973177556,-0.5555061086185382,-2.351166175738166,3
1538158226.37101,85,0,72841.65223412501,1.851058959960938,-0.46551513671875,0.6077423095703125,,,,,3
1538158226.372696,86,0,72841.662048125,1.870040893554688,-0.515655517578125,0.542694091796875,72841.65325112501,3.06264697149992,-0.4253350555932092,-2.324362258314846,3
1538158226.382959,87,0,72841.671846125,1.910247802734375,-0.53900146484375,0.456298828125,72841.673238125,2.279634467806965,-0.2156007334212179,-2.41813642135428,3
1538158226.393571,88,0,72841.681652125,1.868606567382812,-0.5895538330078125,0.3963165283203125,,,,,3
1538158226.403223,89,0,72841.691456125,1.790924072265625,-0.6210479736328125,0.3590240478515625,72841.683246125,2.369476739813006,-0.2176178116308439,-2.278689045619987,3
1538158226.411541,90,0,72841.701256125,1.70538330078125,-0.6084442138671875,0.3885955810546875,72841.703268125,2.946331812994055,-0.4956214693986895,-1.269145130127692,3
1538158226.448014,91,0,72841.71105912501,1.607162475585938,-0.664642333984375,0.4698638916015625,,,,,3
1538158226.448778,92,0,72841.72086112501,1.499160766601562,-0.723236083984375,0.55938720703125,72841.713275125,3.190156993964042,-0.4004725826045564,-0.6856129794615964,3
1538158226.449453,93,0,72841.730664125,1.318939208984375,-0.6408233642578125,0.57794189453125,72841.733295125,2.8297833615767,-0.4894597135845731,-0.208111658119806,3
1538158226.451193,94,0,72841.740466125,1.069839477539062,-0.189056396484375,0.5691986083984375,,,,,3
1538158226.461254,95,0,72841.75024012501,1.298309326171875,-0.3430023193359375,0.6131439208984375,72841.743305125,2.141596436921542,-1.230976172752459,-1.084349713667639,3
1538158226.472057,96,0,72841.76006712501,1.316802978515625,-0.7648773193359375,0.6408233642578125,72841.76329112501,-1.007058387246923,-2.494833862851908,-1.31064170728498,3
1538158226.480563,97,0,72841.769868125,1.1363525390625,-0.735443115234375,0.754638671875,,,,,3
1538158226.491471,98,0,72841.779668125,1.144927978515625,-0.443572998046875,0.6639404296875,72841.77330312501,-2.369230663728283,-2.598432160836535,-0.5087425977734008,3
1538158226.528415,99,0,72841.78946912501,1.27239990234375,-0.4376220703125,0.3472900390625,72841.793320125,-2.648657514782667,-2.580352759144315,0.205319067400749,3
1538158226.529016,100,0,72841.799266125,1.149078369140625,-0.277557373046875,0.29888916015625,,,,,3
1538158226.529476,101,0,72841.809072125,1.0653076171875,0.3048858642578125,0.4251708984375,72841.803333125,-2.050932313403102,-2.929403163208858,0.493221162308201,3
1538158226.53109,102,0,72841.818873125,0.8309478759765625,0.463104248046875,0.5097808837890625,72841.82334812501,-1.557459748687998,-1.714625401470697,0.5094014638270864,3
1538158226.539466,103,0,72841.828674125,0.6049652099609375,0.2842559814453125,0.53912353515625,,,,,3
1538158226.550197,104,0,72841.838474125,0.6074371337890625,0.2672576904296875,0.4771728515625,72841.833365125,-1.242045069191155,-0.9392828017171699,0.6176214115674373,3
1538158226.56114,105,0,72841.848251125,0.7284088134765625,0.32537841796875,0.396820068359375,72841.84337312501,-1.097931835227043,-0.2687150845178672,0.9880434170637576,3
1538158226.569815,106,0,72841.858075125,0.7707977294921875,0.4656982421875,0.24237060546875,72841.85337712501,-1.076240388148348,0.1514233448402704,1.226972642685743,3
1538158226.606843,107,0,72841.86787312501,0.7839202880859375,0.6986083984375,0.0418701171875,72841.86338512501,-0.7953621142998708,0.2421183610273548,1.060826544391187,3
1538158226.607714,108,0,72841.87766312501,0.7028350830078125,0.8748321533203125,-0.0559234619140625,72841.88339612501,-0.3563224317371138,0.4179176193251205,0.3235048302562854,3
1538158226.608289,109,0,72841.887476125,0.6396331787109375,0.415771484375,-0.02215576171875,,,,,3
1538158226.610192,110,0,72841.897278125,0.8603363037109375,0.5684051513671875,-0.0436859130859375,72841.893404125,-0.01097222369112646,0.4735198955121219,0.031492146206296,3
1538158226.620507,111,0,72841.907074125,0.8845367431640625,0.4979400634765625,-0.2242889404296875,72841.91341412501,0.8022170909457347,0.6366632796776129,-0.3076747344207454,3
1538158226.627068,112,0,72841.91686712501,0.9366912841796875,0.64453125,-0.2687835693359375,,,,,3
1538158226.636886,113,0,72841.92666312501,0.9774017333984375,0.6297454833984375,-0.248077392578125,,,,,3
1538158226.648645,114,0,72841.936460125,1.014968872070312,0.564300537109375,-0.08056640625,72841.923423125,1.083877801522477,0.5827169570564228,-0.5121490471237212,3
1538158226.658851,115,0,72841.94626712501,0.9861297607421875,0.3490753173828125,0.1240692138671875,72841.943405125,1.350656235295639,0.9756759632775387,-0.4526987694776644,3
1538158226.686823,116,0,72841.95608212501,0.9308929443359375,0.317291259765625,0.1535491943359375,72841.95341812501,1.291806766791504,1.340180424831703,-0.1502491571156544,3
1538158226.687439,117,0,72841.96587712501,0.889434814453125,0.3782196044921875,0.082855224609375,,,,,3
1538158226.687998,118,0,72841.975659125,0.8246002197265625,0.404388427734375,0.02294921875,72841.97343512501,1.026648067593328,1.309416120551326,0.1967380960524046,3
1538158226.695987,119,0,72841.985483125,0.7140960693359375,0.4246673583984375,-0.024139404296875,,,,,3
1538158226.710438,120,0,72841.995278125,0.6812896728515625,0.4560089111328125,-0.05413818359375,72841.983462125,0.9259475551908162,1.165803560872149,0.2692362651431957,3
1538158226.724713,121,0,72842.00507312501,0.676513671875,0.434234619140625,0.016357421875,72842.00344512501,0.8181060426413654,0.712053375396121,-0.05769232501049554,3
1538158226.727986,122,0,72842.01488812501,0.7388458251953125,0.3945465087890625,0.1410980224609375,72842.01348012501,0.9795559226696752,0.7393622281621206,-0.2000808958526721,3
1538158226.734947,123,0,72842.02468112501,0.849090576171875,0.3466033935546875,0.22869873046875,,,,,3
1538158226.771416,124,0,72842.03448312501,0.9849090576171875,0.33544921875,0.212127685546875,72842.03346212501,1.317092948709588,1.094432707870788,-0.3431256695874442,3
1538158226.772584,125,0,72842.04427512501,0.9993743896484375,0.3072967529296875,0.1645660400390625,72842.04349912501,1.442147536648657,1.339211034194914,-0.2509858885089917,3
1538158226.773009,126,0,72842.054086125,1.003631591796875,0.3959197998046875,0.158660888671875,,,,,3
1538158226.774497,127,0,72842.06388812501,1.015701293945312,0.436004638671875,0.1178131103515625,72842.063492125,1.649381416873173,1.872859248166627,0.1189804501248161,3
1538158226.785744,128,0,72842.07368112501,1.01690673828125,0.504241943359375,0.059722900390625,,,,,3
1538158226.795503,129,0,72842.08350412501,0.9795684814453125,0.5570068359375,0.02935791015625,72842.073519125,1.618284750088754,1.777357492528058,0.2376461146087848,3
1538158226.803868,130,0,72842.09330612501,0.905853271484375,0.566070556640625,-0.0256805419921875,72842.08351712501,1.401810766146099,1.446386490155736,0.2325850432731982,3
1538158226.819834,131,0,72842.10310612501,0.8735198974609375,0.50592041015625,-0.035308837890625,72842.093521125,0.8803185509700525,0.8088622104977005,-0.02475195180341445,3
1538158226.849582,132,0,72842.112910125,0.8188018798828125,0.3536224365234375,0.0150909423828125,72842.10353812501,0.1347692669634598,0.01104306377612257,-0.3055569887219144,3
1538158226.850461,133,0,72842.12271312501,0.7816619873046875,0.2166900634765625,0.0611419677734375,72842.11354612501,-0.5343446305967686,-0.5549383226741333,-0.5212602538451003,3
1538158226.851086,134,0,72842.132501125,1.048721313476562,0.400726318359375,0.0481719970703125,72842.123550125,-1.063410875913,-0.9066207288440021,-0.7318097696267648,3
1538158226.85451,135,0,72842.142314125,1.352706909179688,0.4472503662109375,-0.145721435546875,72842.133558125,-1.533463602001948,-1.466114654878825,-1.284340860991576,3
1538158226.862914,136,0,72842.15211712501,1.450698852539062,0.459625244140625,-0.0607147216796875,72842.14356512501,-1.615480974093118,-2.213551853782175,-1.583227962763387,3
1538158226.875293,137,0,72842.16191912501,1.343490600585938,0.49114990234375,0.2472381591796875,72842.153569125,-1.16845021036347,-2.512763062258649,-1.430428828903981,3
1538158226.883826,138,0,72842.17171912501,1.067520141601562,0.5093536376953125,0.516876220703125,72842.16354912501,-0.4546745686903941,-2.143088606080313,-1.091329858884737,3
1538158226.892074,139,0,72842.181520125,0.91204833984375,0.50946044921875,0.5846099853515625,72842.173585125,0.1593598312048155,-1.547613775821866,-0.9041149605743465,3
1538158226.927279,140,0,72842.191322125,0.8205108642578125,0.5018310546875,0.4924774169921875,72842.18358912501,0.5488183784891313,-0.535266084333936,-0.6253749387650941,3
1538158226.92802,141,0,72842.201122125,0.8451995849609375,0.67083740234375,0.214630126953125,72842.193591125,0.772616588061722,0.1541371059910611,-0.1583851142458465,3
1538158226.928633,142,0,72842.21090412501,0.9627685546875,0.83709716796875,-0.077484130859375,72842.213607125,0.9548929204466694,0.0665068555864398,0.2681989638986099,3
1538158226.931439,143,0,72842.22072512501,1.032455444335938,0.8498992919921875,-0.2896881103515625,,,,,3
1538158226.941094,144,0,72842.23052712501,1.076171875,0.8060760498046875,-0.374298095703125,72842.22359012501,0.9957143862676219,-0.3851186599719226,0.3156932461468649,3
1538158226.95176,145,0,72842.24032312501,1.048049926757812,0.79315185546875,-0.5036163330078125,72842.243627125,0.6551131270774638,-1.304914313044656,-0.05380597403174291,3
1538158226.960798,146,0,72842.25013112501,0.9775390625,0.8431854248046875,-0.5665435791015625,,,,,3
1538158226.971638,147,0,72842.25993312501,0.9049224853515625,0.8115081787109375,-0.488494873046875,72842.253620125,0.451812735782995,-1.835903094351816,-0.4834183326517283,3
1538158227.008992,148,0,72842.26971212501,0.78155517578125,0.7753448486328125,-0.3725128173828125,72842.263643125,0.3879181749098139,-2.138055231620064,-0.9442187044815228,3
1538158227.010024,149,0,72842.27953312501,0.67108154296875,0.6144256591796875,-0.2171173095703125,72842.27364712501,0.5439250863022197,-2.012555629462843,-1.264268615855648,3
1538158227.010833,150,0,72842.28933912501,0.6038970947265625,0.47027587890625,-0.1652984619140625,72842.28364912501,0.8272348262259391,-1.50843334986462,-1.353584114598072,3
1538158227.011746,151,0,72842.299130125,0.59295654296875,0.31536865234375,-0.22601318359375,72842.303665125,1.001321938258893,-0.4958864539271523,-1.309326105706481,3
1538158227.018046,152,0,72842.308938125,0.6454315185546875,0.203948974609375,-0.3896636962890625,,,,,3
1538158227.032886,153,0,72842.31874312501,0.704986572265625,0.092254638671875,-0.544677734375,72842.313673125,0.9315870651151679,-0.2393955451288578,-1.225663965326078,3
1538158227.041317,154,0,72842.32851812501,0.7525482177734375,-0.0285491943359375,-0.623321533203125,72842.33368512501,0.3165992535497099,-0.5690943554484496,-0.8693633715099025,3
1538158227.049032,155,0,72842.338347125,0.7168121337890625,-0.125213623046875,-0.7033843994140625,,,,,3
1538158227.087603,156,0,72842.348149125,0.7203826904296875,-0.1824798583984375,-0.6887359619140625,72842.34369212501,-0.07160654275783254,-0.990135862732233,-0.7508484419436323,3
1538158227.088622,157,0,72842.35792912501,0.7324066162109375,-0.256134033203125,-0.5218048095703125,72842.363694125,-0.5198964490508707,-0.822996405351078,-0.3539511531025072,3
1538158227.089083,158,0,72842.367755125,0.8104095458984375,-0.272216796875,-0.3046875,,,,,3
1538158227.09264,159,0,72842.37756012501,0.954132080078125,-0.0488739013671875,-0.1947174072265625,72842.37371112501,-0.9107536885396961,-0.5195947128993648,-0.1450112518836866,3
1538158227.100769,160,0,72842.38735812501,1.067825317382812,0.227874755859375,-0.063873291015625,72842.39372212501,-1.540157191085753,-0.2005786406604079,-0.1080439127922967,3
1538158227.108,161,0,72842.397165125,1.167770385742188,0.52947998046875,0.0639495849609375,,,,,3
1538158227.122427,162,0,72842.406949125,1.201644897460938,0.5594940185546875,0.0400390625,72842.40373012501,-1.527396388406529,-0.2995385109744443,-0.2605977695153057,3
1538158227.132345,163,0,72842.416771125,1.135421752929688,0.4266510009765625,0.0070648193359375,72842.41371812501,-1.196476252411027,-0.1816355758266743,-0.3454593976506806,3
1538158227.172278,164,0,72842.426574125,0.9840850830078125,0.252593994140625,-0.0361480712890625,72842.42372212501,-0.7614329093800433,-0.2708647881497792,-0.2060801988402936,3
1538158227.17322,165,0,72842.43637512501,0.839385986328125,0.14874267578125,-0.17645263671875,,,,,3
1538158227.173922,166,0,72842.446178125,0.7447357177734375,0.0287933349609375,-0.30084228515625,72842.433749125,-0.5893974966508866,-0.422774958837316,0.02803136836973803,3
1538158227.174697,167,0,72842.45597912501,0.7503204345703125,0.03240966796875,-0.513702392578125,72842.453750125,-1.337698358695749,-0.534192031466307,0.705229291418902,3
1538158227.176018,168,0,72842.46575612501,0.9156341552734375,0.4205780029296875,-0.8726348876953125,,,,,3
1538158227.188177,169,0,72842.47558312501,0.988922119140625,0.8638763427734375,-0.9983062744140625,72842.463764125,-1.578637205676308,-0.4977163119121458,0.9773769242657723,3
1538158227.195937,170,0,72842.485386125,0.895294189453125,0.93280029296875,-0.6668243408203125,72842.483750125,-0.9799053294046935,-0.8709271797019971,0.07960161866635942,3
1538158227.205454,171,0,72842.495167125,0.9080963134765625,0.76690673828125,-0.0707855224609375,,,,,3
1538158227.219534,172,0,72842.504992125,0.904083251953125,0.5822906494140625,0.328460693359375,72842.49376512501,-0.9564902844684989,-0.5907072392749876,-0.3932008212480951,3
1538158227.254495,173,0,72842.514794125,0.8652191162109375,0.42022705078125,0.376983642578125,72842.513779125,-0.6940826306763753,0.4099779371672673,-0.000604803883556995,3
1538158227.25514,174,0,72842.524594125,0.788330078125,0.390045166015625,0.2622833251953125,,,,,3
1538158227.255616,175,0,72842.534396125,0.709716796875,0.2629547119140625,0.130859375,72842.52378412501,-0.4223794794154392,0.5782822612092229,0.2140108262504405,3
1538158227.256229,176,0,72842.544198125,0.72943115234375,0.1727142333984375,-0.0687408447265625,72842.54382012501,-0.601511151185221,0.4106344063759718,0.6875680060178235,3
1538158227.264886,177,0,72842.55398312501,0.844970703125,0.22015380859375,-0.241485595703125,,,,,3
1538158227.273912,178,0,72842.56377812501,0.88946533203125,0.259674072265625,-0.331085205078125,72842.55380212501,-1.227388095815795,-0.0257011024159187,0.7398330750428466,3
1538158227.28419,179,0,72842.573605125,0.8056793212890625,0.1352996826171875,-0.2567596435546875,72842.573838125,-2.708917393400108,-0.9927295153178611,-0.01179141204243483,3
1538158227.295625,180,0,72842.58339512501,0.6453857421875,0.2212982177734375,-0.229339599609375,,,,,3
1538158227.332581,181,0,72842.593198125,0.6775970458984375,0.4437103271484375,-0.2385406494140625,72842.58384412501,-3.463668431605142,-0.7948691631820971,-0.4908871679288556,3
1538158227.333562,182,0,72842.60301212501,0.7007904052734375,0.47576904296875,-0.3473052978515625,72842.603858125,-4.048837893709419,-0.1701972989447839,-0.8073671118617299,3
1538158227.334035,183,0,72842.612802125,0.5094146728515625,0.614898681640625,-0.2022705078125,,,,,3
1538158227.338314,184,0,72842.62261012501,0.524322509765625,0.91754150390625,0.022674560546875,72842.613845125,-3.824063901913423,0.4745374893646411,-0.8376067734073617,3
1538158227.34283,185,0,72842.63241212501,0.739013671875,1.093734741210938,0.2720794677734375,72842.63387612501,-3.158332218937595,1.759400063613763,-1.410457783889477,3
1538158227.353928,186,0,72842.642196125,0.88800048828125,1.032577514648438,0.510162353515625,,,,,3
1538158227.362719,187,0,72842.65199712501,0.8068084716796875,0.889312744140625,0.8470611572265625,72842.643870125,-2.593318625227474,1.910448701688659,-1.572013391413063,3
1538158227.373193,188,0,72842.66181612501,0.6393585205078125,0.8228607177734375,0.797637939453125,72842.663896125,-0.5500849779035729,-0.2606627506459036,-0.8454037101307866,3
1538158227.405087,189,0,72842.671615125,0.633056640625,0.7917633056640625,0.6834869384765625,,,,,3
1538158227.405903,190,0,72842.68141812501,0.6837005615234375,0.7843780517578125,0.467742919921875,72842.67389812501,-0.03888002138628482,-0.03565067224845473,-0.8034959409011908,3
1538158227.406655,191,0,72842.69122012501,0.7427825927734375,0.6023101806640625,0.2681427001953125,72842.693916125,0.3739264591747556,0.4172009626757802,-0.6801356560476304,3
1538158227.411593,192,0,72842.70102412501,0.768524169921875,0.37652587890625,0.1718902587890625,,,,,3
1538158227.422685,193,0,72842.710813125,0.730987548828125,0.435791015625,0.0242462158203125,72842.703910125,0.5622252640488081,0.477725293189466,-0.419750406787313,3
1538158227.431817,194,0,72842.720638125,0.7337646484375,0.4031829833984375,-0.0825958251953125,72842.72393412501,0.4219288725589979,0.04247715307065484,-0.4530806667779817,3
1538158227.440988,195,0,72842.73043512501,0.6958465576171875,0.368255615234375,-0.1145782470703125,,,,,3
1538158227.450837,196,0,72842.740250125,0.813262939453125,0.4936981201171875,-0.06561279296875,72842.733928125,-0.03413107253045552,-0.04129337796611462,-0.8417618373401033,3
1538158227.486292,197,0,72842.75002412501,1.026153564453125,0.649200439453125,-0.083740234375,72842.753954125,-1.159108906523908,0.5215287004829803,-1.836688726873389,3
1538158227.487054,198,0,72842.759852125,0.7831878662109375,0.623260498046875,-0.3321685791015625,,,,,3
1538158227.487538,199,0,72842.76965812501,1.12640380859375,0.8400726318359375,-0.311248779296875,72842.763934125,-1.389742917982514,0.399280818016746,-2.363412189378677,3
1538158227.491594,200,0,72842.77944712501,1.2471923828125,1.111251831054688,-0.282623291015625,72842.783973125,-1.081378158523329,0.3332293629767097,-4.193430496669745,3
1538158227.500124,201,0,72842.789265125,1.071975708007812,1.051773071289062,-0.1000518798828125,,,,,3
1538158227.509716,202,0,72842.79907012501,0.78076171875,0.8928985595703125,0.127685546875,,,,,3
1538158227.52014,203,0,72842.80884912501,0.6676788330078125,0.714447021484375,0.322723388671875,72842.803988125,0.003334810316997222,-3.517667751132025,-4.878978228684635,3
1538158227.530859,204,0,72842.818675125,0.5850830078125,0.5439910888671875,0.4475250244140625,72842.81399212501,0.5393103607653303,-4.553055248158557,-4.817761742603637,3
1538158227.56668,205,0,72842.828479125,0.4225616455078125,0.420135498046875,0.311859130859375,72842.82397912501,0.8190807596003344,-4.154210655928366,-4.691098072733943,3
1538158227.567764,206,0,72842.838269125,0.5605621337890625,0.5637054443359375,0.2797393798828125,72842.834007125,0.9715094477521098,-3.404157433886231,-4.573704333986595,3
1538158227.568631,207,0,72842.848084125,0.6369171142578125,0.630767822265625,0.3005523681640625,72842.84401112501,0.9817833906054174,-2.304872712825428,-4.814127060347897,3
1538158227.570205,208,0,72842.85788712501,0.5305023193359375,0.5463409423828125,0.216522216796875,72842.853992125,1.016010336935116,-1.024363341694149,-4.956575818630709,3
1538158227.579746,209,0,72842.867677125,0.548065185546875,0.6129302978515625,0.0513916015625,72842.864025125,1.218524563075793,-0.05080831990874972,-4.879769720160606,3
1538158227.589276,210,0,72842.877492125,0.63458251953125,0.719024658203125,-0.138031005859375,72842.874029125,1.500361042284481,0.2996564890107348,-4.825172787285109,3
1538158227.597791,211,0,72842.887290125,0.6823272705078125,0.779022216796875,-0.221099853515625,,,,,3
1538158227.607771,212,0,72842.89709712501,0.6750946044921875,0.8290557861328125,-0.20770263671875,72842.884038125,1.62413518237144,-0.03826057011673238,-4.873574674832864,3
1538158227.619096,213,0,72842.90689912501,0.6171417236328125,0.863372802734375,-0.1112518310546875,72842.89403012501,1.663294835672183,-0.6106820127150179,-4.928540721835445,3
1538158227.646555,214,0,72842.91668412501,0.495330810546875,0.8108062744140625,-0.0867156982421875,72842.90403412501,1.690338171277501,-0.9150728031955866,-4.911061330336819,3
1538158227.647544,215,0,72842.92650512501,0.3036041259765625,0.7819366455078125,-0.07293701171875,72842.914051125,1.780486174176684,-0.7046567117845349,-4.746569055079203,3
1538158227.648234,216,0,72842.936308125,0.126953125,0.8366241455078125,-0.0786590576171875,72842.92406212501,1.777382526242305,-0.270087944059803,-4.315152404820688,3
1538158227.656413,217,0,72842.946102125,0.0335693359375,1.102188110351562,-0.71673583984375,72842.934066125,1.675032984492816,0.6426436742214948,-3.691231552010778,3
1538158227.66854,218,0,72842.95591012501,-0.05963134765625,1.066879272460938,-0.288848876953125,72842.94407712501,1.178384333861683,0.9599404096606965,-3.113762087566247,3
1538158227.676301,219,0,72842.965713125,-0.109954833984375,1.141738891601562,-0.296844482421875,72842.964066125,-0.3063364959729806,1.387092540065667,-2.052868165199481,3
1538158227.685605,220,0,72842.97549112501,-0.1420745849609375,1.233444213867188,-0.3019561767578125,,,,,3
1538158227.699104,221,0,72842.98531612501,-0.1570892333984375,1.241683959960938,-0.237274169921875,72842.97409612501,-1.055919936398825,1.317464193365545,-1.450580169924284,3
1538158227.735291,222,0,72842.995121125,-0.1610107421875,1.075942993164062,-0.1038818359375,72842.994095125,-2.465332962192664,0.9647487470088346,-0.7463833860600054,3
1538158227.735921,223,0,72843.004910125,-0.14569091796875,0.9394073486328125,-0.0058746337890625,,,,,3
1538158227.736412,224,0,72843.01468491668,-0.1225128173828125,1.027862548828125,0.2475433349609375,72843.00409291667,-2.629544540271386,0.5101554047316879,-0.5667193483883168,3
1538158227.737202,225,0,72843.02450491667,-0.1002349853515625,1.039505004882812,0.3744354248046875,72843.02410491667,-2.597303779482669,-1.021694055333563,-0.1617265824655689,3
1538158227.745111,226,0,72843.03428391667,-0.0831298828125,1.029541015625,0.4366607666015625,,,,,3
1538158227.758623,227,0,72843.04411091667,-0.069671630859375,1.008377075195312,0.4542999267578125,72843.03411191667,-2.323586213173197,-1.657909923948043,0.02698714290631796,3
1538158227.764504,228,0,72843.05391391666,-0.0664215087890625,1.079544067382812,0.3966522216796875,72843.05412391668,-1.51566516380473,-2.168421659633583,0.3086672945590179,3
1538158227.779841,229,0,72843.06370991668,-0.0655059814453125,1.146087646484375,0.285400390625,,,,,3
1538158227.809396,230,0,72843.07351891667,-0.0648040771484375,2.184783935546875,0.182342529296875,72843.06413191668,-0.9893877807820297,-2.283951451933983,0.480077929696442,3
1538158227.810254,231,0,72843.08332191667,-0.1677398681640625,2.86871337890625,-0.2348480224609375,72843.07413891667,-0.4457945243516339,-1.784109404839736,0.5255812327137539,3
1538158227.810835,232,0,72843.09311291667,-0.2538299560546875,3.660797119140625,-0.1325836181640625,72843.08414291668,-0.382274936559936,-0.926311076679612,0.5815880430703383,3
1538158227.817234,233,0,72843.10292691668,-0.198394775390625,3.447158813476562,-0.3166046142578125,72843.09414991667,-0.5628132900174976,-0.07183530829547034,0.4838210026085483,3
1538158227.823407,234,0,72843.11272991667,-0.099029541015625,1.969406127929688,-0.165618896484375,72843.10415591668,-0.6415384623691119,-0.2815094430268259,0.7690692574897364,3
1538158227.834153,235,0,72843.12253191667,-0.124053955078125,1.075912475585938,-0.065643310546875,72843.11415991667,-0.672324604570428,-0.8561279935244267,0.9435441257774057,3
1538158227.842897,236,0,72843.13233391667,-0.172515869140625,0.6425018310546875,-0.0423126220703125,72843.12414091667,-0.7494902297876919,-1.03553849826034,0.9281182977953397,3
1538158227.852257,237,0,72843.14212491667,-0.24176025390625,0.4481048583984375,-0.0286712646484375,72843.13417891668,-0.7909178310727465,-0.9910860786091732,0.9124431979352423,3
1538158227.885889,238,0,72843.15193991667,-0.34295654296875,0.4141998291015625,0.0104522705078125,72843.14418291667,-0.8667406904683925,-0.8383197016311759,0.9041258795348158,3
1538158227.88661,239,0,72843.16171691667,-0.420989990234375,0.533782958984375,0.0361785888671875,72843.15417091668,-1.016643636642337,-0.7049030541853673,0.8621648470834183,3
1538158227.887149,240,0,72843.17154491667,-0.445648193359375,0.6758270263671875,0.0820465087890625,72843.16419691667,-1.231831313778483,-0.6093610848143386,0.8528485769581032,3
1538158227.8917,241,0,72843.18134091666,-0.3774871826171875,0.803192138671875,0.1137237548828125,72843.17420091668,-1.3447125923748,-0.5124451906369381,1.007587823671631,3
1538158227.901384,242,0,72843.19113591667,-0.1884765625,0.875396728515625,0.0628204345703125,72843.18419991666,-1.286014391420581,-0.4075640479552194,1.235412732812422,3
1538158227.911394,243,0,72843.20094291666,0.032470703125,0.93353271484375,-0.0357513427734375,72843.19421591666,-1.07673094242114,-0.4178206802614416,1.532770647486309,3
1538158227.920945,244,0,72843.21072991667,0.206085205078125,1.008895874023438,-0.1507415771484375,72843.20421991668,-0.7958249716973266,-0.6161612003417469,1.924971185428971,3
1538158227.930816,245,0,72843.22053991667,0.295867919921875,1.087631225585938,-0.249114990234375,72843.21419891667,-0.5158974463580077,-1.036744377601928,2.262360672344493,3
1538158227.965622,246,0,72843.23035091667,0.348388671875,1.114730834960938,-0.29925537109375,72843.22423491668,-0.2726826619098672,-1.574672291445398,2.404208355169275,3
1538158227.966345,247,0,72843.24016491667,0.3712158203125,1.070556640625,-0.303619384765625,72843.23423891667,-0.08918234068791948,-1.94977293834477,2.354567298766307,3
1538158227.969893,248,0,72843.24996791666,0.3517303466796875,0.978485107421875,-0.2763214111328125,72843.25423991667,-0.2952694637470473,-1.873399603551804,2.216566285820035,3
1538158227.973121,249,0,72843.25976391668,0.3313446044921875,0.9228057861328125,-0.17620849609375,72843.26424391667,-0.7820324604118062,-1.359911252715882,2.054292423750455,3
1538158227.979714,250,0,72843.26956291667,0.2870635986328125,0.932525634765625,-0.0788116455078125,,,,,3
1538158227.997969,251,0,72843.27936391668,0.2167205810546875,0.984619140625,0.0094451904296875,72843.27426591667,-1.420910957484147,-0.6451382572145721,1.845263306635117,3
1538158228.002075,252,0,72843.28915991668,0.1236419677734375,1.008071899414062,0.1315460205078125,72843.29426191667,-2.213137465916558,0.4670470824826843,1.569880465696018,3
1538158228.009439,253,0,72843.29895591667,0.0158233642578125,0.9888916015625,0.2894134521484375,,,,,3
1538158228.050314,254,0,72843.30877091667,-0.0706634521484375,0.9258880615234375,0.39166259765625,72843.30428591667,-2.047574067268513,0.7597636400087816,1.565117668402521,3
1538158228.051183,255,0,72843.31855891667,-0.119049072265625,0.87664794921875,0.3636932373046875,72843.32427291667,-1.105506930631665,0.4727489103765439,1.81133410171529,3
1538158228.051644,256,0,72843.32837591667,-0.10546875,0.8584747314453125,0.28668212890625,,,,,3
1538158228.052139,257,0,72843.33818891668,-0.0485076904296875,0.8397674560546875,0.2159881591796875,72843.33430391666,-0.7379198601157336,0.1012429983165613,1.942552309681238,3
1538158228.060162,258,0,72843.34799391667,0.042724609375,0.8159027099609375,0.145599365234375,72843.34428291667,-0.5965656610409439,-0.1359799399950099,2.004383719657934,3
1538158228.069227,259,0,72843.35777091667,0.1616363525390625,0.8123626708984375,0.08355712890625,72843.35428691667,-0.6578141050550222,-0.2422544485590579,1.98111355068504,3
1538158228.08844,260,0,72843.36759391667,0.2755279541015625,0.8255157470703125,0.031341552734375,72843.36432491668,-0.8142950591214621,-0.286385158350543,1.898865016211251,3
1538158228.089033,261,0,72843.37739191667,0.3744659423828125,0.838409423828125,0.018646240234375,,,,,3
1538158228.099593,262,0,72843.38719391667,0.4434967041015625,0.833099365234375,0.0522613525390625,72843.38431391667,-1.068647183248314,-0.3132588505944235,1.720656662391399,3
1538158228.128764,263,0,72843.39699691666,0.49200439453125,0.8039703369140625,0.1041412353515625,,,,,3
1538158228.130148,264,0,72843.40679991667,0.4827728271484375,0.7928314208984375,0.1337890625,72843.39431391667,-1.175191736346896,-0.11259312456637,1.606183079779324,3
1538158228.130942,265,0,72843.41660191667,0.45550537109375,0.784698486328125,0.1932830810546875,72843.41434191666,-1.332443941865023,0.3455946862340566,1.330500633217592,3
1538158228.136682,266,0,72843.42639691666,0.3867645263671875,0.769775390625,0.2672576904296875,,,,,3
1538158228.146697,267,0,72843.43622391667,0.35894775390625,0.7329864501953125,0.3406524658203125,72843.42436191667,-1.299116078719335,0.46327391585026,1.199971118709538,3
1538158228.156572,268,0,72843.44602691667,0.3299407958984375,0.6890716552734375,0.3472900390625,72843.44435591667,-1.043356740272485,0.7083662288669064,0.9727416923884894,3
1538158228.166089,269,0,72843.45581591668,0.2751007080078125,0.657012939453125,0.3236236572265625,,,,,3
1538158228.176281,270,0,72843.46563391667,0.240875244140625,0.625579833984375,0.3176422119140625,72843.45438191667,-0.9576572816581715,0.7464161429414135,0.8401506248806053,3
1538158228.2082,271,0,72843.47543591667,0.2688140869140625,0.58624267578125,0.2951507568359375,72843.47438691667,-0.8599134106978654,0.6383296195716756,0.6203463579948064,3
1538158228.209045,272,0,72843.48523491668,0.2852783203125,0.5452117919921875,0.276214599609375,,,,,3
1538158228.209579,273,0,72843.49503891668,0.2693023681640625,0.5218963623046875,0.2798919677734375,72843.48440091667,-0.839970062558698,0.5416744488649937,0.4891582437491762,3
1538158228.215421,274,0,72843.50484591667,0.3343048095703125,0.4934844970703125,0.3274993896484375,72843.49440691667,-0.7627767404660972,0.3222590034983463,0.3989013175614097,3
1538158228.226756,275,0,72843.51462291667,0.3620758056640625,0.46014404296875,0.316162109375,72843.50441091668,-0.6264037178941917,0.112661035174167,0.3432724097635075,3
1538158228.235117,276,0,72843.52444991667,0.3620452880859375,0.4669189453125,0.32318115234375,72843.51441991667,-0.555935410186259,0.08027326789327741,0.163107964122993,3
1538158228.244766,277,0,72843.53425291667,0.3423004150390625,0.4944610595703125,0.341888427734375,72843.52442691667,-0.4638678007733477,-0.07025898324625245,0.0639624714809781,3
1538158228.259615,278,0,72843.54404991667,0.4340972900390625,0.513824462890625,0.381439208984375,72843.53443091667,-0.3487622500345969,-0.2134307897650213,0.08006873712155932,3
1538158228.28757,279,0,72843.55385891667,0.4627227783203125,0.5358123779296875,0.34783935546875,72843.54443891667,-0.2735780166683519,-0.1281047063355366,0.0141395211755577,3
1538158228.288602,280,0,72843.56366291667,0.4615020751953125,0.5782318115234375,0.3242340087890625,72843.56442691667,-0.03266047497651376,-0.344567238685504,0.02995496962510226,3
1538158228.289182,281,0,72843.57345391667,0.563995361328125,0.610809326171875,0.34613037109375,72843.57445891667,0.04772757515974606,-0.1796965282369876,-0.03971465607191565,3
1538158228.29387,282,0,72843.58326591668,0.555419921875,0.6140594482421875,0.304840087890625,,,,,3
1538158228.303622,283,0,72843.59306891667,0.529205322265625,0.6116790771484375,0.3085479736328125,72843.59446991667,0.2135572899168001,-0.05319504487767873,-0.1231368456381027,3
1538158228.314808,284,0,72843.60287091667,0.5206298828125,0.60784912109375,0.3141937255859375,,,,,3
1538158228.326005,285,0,72843.61267391666,0.5236663818359375,0.6085205078125,0.32073974609375,72843.60445791668,0.2988817754496307,0.01976651424278612,-0.1462504207389005,3
1538158228.33321,286,0,72843.62247191666,0.534454345703125,0.61968994140625,0.3155059814453125,72843.62448891667,0.4973895420463931,-0.01456429536942534,-0.1759217637079093,3
1538158228.366411,287,0,72843.63227891667,0.5504608154296875,0.6277008056640625,0.3314056396484375,,,,,3
1538158228.367416,288,0,72843.64208191667,0.5565338134765625,0.6213226318359375,0.3433380126953125,72843.63448791667,0.6211674105588779,-0.06249240655925437,-0.1881440752147189,3
1538158228.368232,289,0,72843.65188291667,0.5716552734375,0.6160430908203125,0.3498077392578125,72843.65450791667,0.8530179540034322,-0.1648837599378579,-0.2329445700203589,3
1538158228.372334,290,0,72843.66168791667,0.62677001953125,0.6266326904296875,0.3303680419921875,,,,,3
1538158228.384511,291,0,72843.67149091668,0.6927032470703125,0.690521240234375,0.32281494140625,72843.66448591667,0.9509088314559108,-0.298386161170767,-0.2043017398643387,3
1538158228.391504,292,0,72843.68127991667,0.741790771484375,0.7827911376953125,0.37225341796875,72843.68452791667,0.833044778460056,-0.3376384924774449,0.03131930705154986,3
1538158228.401772,293,0,72843.69109791667,0.764617919921875,0.904571533203125,0.4421234130859375,,,,,3
1538158228.415551,294,0,72843.70090191667,0.76092529296875,1.03936767578125,0.444427490234375,72843.69451491667,0.6161313729375381,-0.01839099153976019,0.1225906312985275,3
1538158228.450772,295,0,72843.71069891666,0.7140655517578125,1.10638427734375,0.3967437744140625,72843.71454791666,0.3562590485031699,0.6765185506550847,0.09446418807787363,3
1538158228.451445,296,0,72843.72050991667,0.60748291015625,1.05438232421875,0.3795928955078125,,,,,3
1538158228.452278,297,0,72843.73031491667,0.4669189453125,0.918670654296875,0.3907623291015625,72843.72454491667,0.2740589835612202,0.79675015386002,0.005350024313860182,3
1538158228.452969,298,0,72843.74011791668,0.3625640869140625,0.7983551025390625,0.408294677734375,72843.74456691668,0.153999953194922,0.6287984323463909,-0.1587020304155659,3
1538158228.460667,299,0,72843.74992291667,0.3101959228515625,0.7107391357421875,0.413055419921875,,,,,3
1538158228.471401,300,0,72843.75972791667,0.2989501953125,0.659332275390625,0.3869781494140625,72843.75457291667,0.1689711795789115,0.4701334198699771,-0.2223507815201327,3
1538158228.480653,301,0,72843.76950891667,0.3170166015625,0.643157958984375,0.3300933837890625,72843.76458091667,0.281076945665797,0.2826423517545456,-0.2997038932781382,3
1538158228.494706,302,0,72843.77933391667,0.3591461181640625,0.66912841796875,0.2989501953125,72843.77458491667,0.4029996561629327,0.0314117187413756,-0.3850014808839591,3
1538158228.530139,303,0,72843.78913791667,0.3828887939453125,0.7098236083984375,0.289703369140625,72843.78459291667,0.4603108828214378,-0.2751170574623087,-0.4886591673608953,3
1538158228.531024,304,0,72843.79893991667,0.40625,0.7353973388671875,0.2592620849609375,72843.80460491667,0.487371262657733,-1.153261137402311,-0.8024940596991029,3
1538158228.531625,305,0,72843.80874491668,0.4232330322265625,0.78570556640625,0.256072998046875,,,,,3
1538158228.534778,306,0,72843.81854691668,0.4151611328125,0.896392822265625,0.338043212890625,72843.81461291667,0.5084879995731892,-1.576007866732073,-0.9727747155860064,3
1538158228.541569,307,0,72843.82833991667,0.4505615234375,1.048538208007812,0.445098876953125,72843.83462391667,0.5625240707231151,-1.803445019618148,-1.253928093975089,3
1538158228.548693,308,0,72843.83815391667,0.492034912109375,1.226226806640625,0.5014190673828125,,,,,3
1538158228.56479,309,0,72843.84795591667,0.4701995849609375,1.406768798828125,0.425872802734375,72843.84463091668,0.6990233271306904,-1.513041683814893,-1.403875514939237,3
1538158228.574643,310,0,72843.85775791667,0.459320068359375,1.4967041015625,0.2038421630859375,72843.85461491667,0.949167656735217,-0.8707404921095825,-1.589395577531901,3
1538158228.608028,311,0,72843.86755991667,0.46856689453125,1.44439697265625,0.0084381103515625,72843.86461891668,1.167106911909633,-0.4672588037893455,-1.543310640132516,3
1538158228.608748,312,0,72843.87735491667,0.478057861328125,1.34930419921875,-0.0953216552734375,72843.87465091667,1.309254732989267,-0.4753225892539965,-1.24239554119061,3
1538158228.609164,313,0,72843.88716591668,0.519622802734375,1.22259521484375,-0.1168975830078125,,,,,3
1538158228.609599,314,0,72843.89697091667,0.5431365966796875,1.111679077148438,-0.0521240234375,72843.88464091667,1.345200483486502,-0.6982890936181555,-1.013407363285672,3
1538158228.617058,315,0,72843.90676291667,0.5366058349609375,0.985260009765625,0.028289794921875,72843.89464491667,1.306341767388938,-0.9384092848796239,-0.9310267360218153,3
1538158228.627099,316,0,72843.91657891667,0.5142364501953125,0.857269287109375,0.100830078125,72843.90466991666,1.277702665658444,-1.04548167650626,-0.9219924946559395,3
1538158228.637106,317,0,72843.92636691667,0.4923248291015625,0.751678466796875,0.1359405517578125,72843.91467191667,1.324636086181128,-0.9290184462437865,-0.947957250019776,3
1538158228.646811,318,0,72843.93615991667,0.4629974365234375,0.7279205322265625,0.1187286376953125,72843.92467591667,1.430673573408159,-0.6723648183028882,-0.9551903955404312,3
1538158228.656003,319,0,72843.94595891667,0.4256439208984375,0.7838897705078125,0.077972412109375,72843.93468791667,1.539681550515065,-0.4367464345480897,-0.9409257057936398,3
1538158228.685728,320,0,72843.95578691667,0.393890380859375,0.867218017578125,0.0544281005859375,72843.94469691667,1.5877073997169,-0.3075889806336448,-0.9712364737403766,3
1538158228.68655,321,0,72843.96558191667,0.3675384521484375,0.9452056884765625,0.039276123046875,72843.95470091667,1.555352123001309,-0.2147913987659428,-1.039389695512703,3
1538158228.687064,322,0,72843.97537691667,0.3292083740234375,1.0185546875,0.01409912109375,72843.96470891667,1.439593032531053,-0.09097811021095992,-1.085190473623777,3
1538158228.695437,323,0,72843.98516491667,0.281494140625,1.083328247070312,-0.026611328125,72843.98470391668,1.020595767700014,0.2995219993756858,-1.110531250344208,3
1538158228.706692,324,0,72843.99499791667,0.2375335693359375,1.131851196289062,-0.06494140625,,,,,3
1538158228.715375,325,0,72844.00479491668,0.1944580078125,1.162643432617188,-0.077545166015625,72843.99472791667,0.8193076609252092,0.3992544527219542,-1.125063854096662,3
1538158228.725243,326,0,72844.01459791667,0.15826416015625,1.159515380859375,-0.0662841796875,72844.00473491667,0.6511689855030565,0.4013953679222689,-1.134261879869577,3
1538158228.739579,327,0,72844.02439491668,0.1130218505859375,1.115829467773438,-0.0358428955078125,72844.01473891667,0.5126899351411163,0.3538313108534537,-1.122538644751048,3
1538158228.768542,328,0,72844.03419591667,0.0672149658203125,1.040573120117188,-0.0128631591796875,72844.02474691666,0.4121113955165298,0.3079232073504498,-1.161581917912155,3
1538158228.769409,329,0,72844.04399891668,0.0369873046875,0.960601806640625,0.0118865966796875,72844.03475391667,0.3579000883668768,0.2697449289114008,-1.162916427934394,3
1538158228.770036,330,0,72844.05381391667,0.0201416015625,0.8892059326171875,0.013641357421875,72844.04475791666,0.3443153036463826,0.2346082467533314,-1.177708423577021,3
1538158228.77423,331,0,72844.06360591667,0.030303955078125,0.8444061279296875,0.0028839111328125,72844.05474491668,0.3668291348696944,0.1444304164499403,-1.174669490457132,3
1538158228.783983,332,0,72844.07340691666,0.0720367431640625,0.810699462890625,-0.00408935546875,72844.06477391667,0.4266842130014433,0.003324423988745913,-1.168734369651781,3
1538158228.796456,333,0,72844.08321091667,0.12677001953125,0.792816162109375,-0.014190673828125,72844.07477791667,0.4947402293939822,-0.1587542283729315,-1.133789967724415,3
1538158228.803527,334,0,72844.09302591668,0.1786041259765625,0.7803497314453125,-0.016326904296875,72844.08476491667,0.542258480092048,-0.2602150732666613,-1.084594724487926,3
1538158228.813239,335,0,72844.10283091667,0.21246337890625,0.7847900390625,-0.0173797607421875,72844.09479191666,0.5724800321422673,-0.3244017829114241,-1.020940114428961,3
1538158228.847143,336,0,72844.11263291667,0.2502899169921875,0.7908782958984375,-0.010528564453125,72844.10479591668,0.6232398825191775,-0.4163618006162962,-0.9771103418406554,3
1538158228.847897,337,0,72844.12243291667,0.3107757568359375,0.787689208984375,-0.00750732421875,72844.11479291668,0.698606808736202,-0.4215368552465382,-0.9571203883824116,3
1538158228.848744,338,0,72844.13220791667,0.3784942626953125,0.8165283203125,-0.0314483642578125,72844.13481591667,0.7630084354809341,0.1895225273949439,-0.8449126232257761,3
1538158228.853034,339,0,72844.14203891667,0.4547882080078125,0.878814697265625,-0.0618438720703125,,,,,3
1538158228.8624,340,0,72844.15183991667,0.5124359130859375,0.9344329833984375,-0.0723876953125,72844.14480191667,0.6080225800504647,0.6410569628440257,-0.7891604110694033,3
1538158228.87189,341,0,72844.16162691667,0.5485382080078125,0.956939697265625,-0.05670166015625,72844.16483491666,0.137697678898111,1.260591589338576,-0.8359257861273036,3
1538158228.882128,342,0,72844.17144591667,0.568023681640625,0.9349822998046875,-0.0100555419921875,,,,,3
1538158228.891229,343,0,72844.18121891667,0.5186614990234375,0.8854522705078125,0.021270751953125,72844.17483191667,0.008067247574068029,1.399265849408419,-0.881980363490262,3
1538158228.928133,344,0,72844.19104491668,0.4242095947265625,0.8598175048828125,0.0270233154296875,72844.19485491667,0.09695823843873284,1.320885023785752,-0.738772870612886,3
1538158228.928748,345,0,72844.20085091668,0.32000732421875,0.8511962890625,0.01715087890625,,,,,3
1538158228.92964,346,0,72844.21065291668,0.2325897216796875,0.8568572998046875,-0.0199737548828125,72844.20486091667,0.2223377320307913,1.258177433810419,-0.6208803217933673,3
1538158228.932698,347,0,72844.22043391668,0.174591064453125,0.876373291015625,-0.0502166748046875,72844.22487391667,0.4115361527210726,0.995550335544473,-0.54877843107278,3
1538158228.940952,348,0,72844.23025691666,0.1398773193359375,0.9150238037109375,-0.05987548828125,,,,,3
1538158228.950618,349,0,72844.24005791667,0.113983154296875,0.97320556640625,-0.0636444091796875,72844.23485991667,0.4184582410264066,0.8754486946007336,-0.5712459232931245,3
1538158228.960779,350,0,72844.24983791666,0.0919189453125,1.022140502929688,-0.0393218994140625,72844.24488891667,0.3837918731168452,0.7871979276621238,-0.5943789394698799,3
1538158228.970341,351,0,72844.25966291667,0.077911376953125,1.050186157226562,0.011688232421875,72844.25489291667,0.3584865164389122,0.7298233177696748,-0.6048622067848677,3
1538158229.00866,352,0,72844.26946491667,0.067474365234375,1.039306640625,0.051910400390625,,,,,3
1538158229.009563,353,0,72844.27925791667,0.0714263916015625,1.022750854492188,0.0849151611328125,72844.27490891668,0.365100743322233,0.7833824167683673,-0.5465957042433511,3
1538158229.010908,354,0,72844.28906391667,0.072998046875,0.97991943359375,0.068695068359375,72844.28491291667,0.3578889030902984,0.8093903153418631,-0.4850676283148144,3
1538158229.011651,355,0,72844.29886691667,0.120330810546875,0.9676055908203125,0.04840087890625,72844.29491391667,0.3576454901666652,0.712085599645311,-0.4491788694649066,3
1538158229.020536,356,0,72844.30865591667,0.133819580078125,0.947601318359375,0.0147247314453125,72844.30492691667,0.3350043598432476,0.6603779302364415,-0.4181240143096016,3
1538158229.030164,357,0,72844.31846891667,0.13201904296875,0.9225006103515625,-0.0269775390625,72844.31493091668,0.3293781657243461,0.5196772708931572,-0.370244372651612,3
1538158229.040152,358,0,72844.32827091667,0.1261444091796875,0.928131103515625,-0.033660888671875,72844.32491691667,0.3453768396568881,0.3204616360786519,-0.33875116118088,3
1538158229.048638,359,0,72844.33807291667,0.0937957763671875,0.925079345703125,-0.0399017333984375,,,,,3
1538158229.08605,360,0,72844.34787491667,0.0723419189453125,0.9297943115234375,-0.04339599609375,72844.34494891667,0.4212795938852365,-0.116624617824532,-0.2036378138045819,3
1538158229.087092,361,0,72844.35767291667,0.0711822509765625,0.9583282470703125,-0.0287628173828125,72844.35494691668,0.4641181379158151,-0.2672711185748262,-0.1978054910173084,3
1538158229.087806,362,0,72844.36747991668,0.0632171630859375,0.955078125,-0.0247344970703125,,,,,3
1538158229.088553,363,0,72844.37728091667,0.123046875,1.013320922851562,0.0107574462890625,72844.37495091667,0.478333026550222,-0.3477475856592767,-0.2993406381054514,3
1538158229.097135,364,0,72844.38705991667,0.1515960693359375,1.03924560546875,0.020233154296875,72844.38497491667,0.4245116061841567,-0.1297968788921729,-0.3750465847292429,3
1538158229.107408,365,0,72844.39688491667,0.191131591796875,1.037994384765625,-0.0013275146484375,,,,,3
1538158229.117334,366,0,72844.40668691667,0.30181884765625,1.081451416015625,0.0355987548828125,72844.40496191668,0.4399669952543225,0.165729846216176,-0.5539755899400697,3
1538158229.126542,367,0,72844.41647891667,0.3596954345703125,1.080856323242188,0.066375732421875,,,,,3
1538158229.139129,368,0,72844.42628791668,0.36236572265625,1.0396728515625,0.039764404296875,72844.41499591667,0.4059051649122091,0.5980210785766722,-0.627892158627437,3
1538158229.171094,369,0,72844.43609091667,0.320098876953125,0.9686279296875,-0.0343017578125,72844.42498691667,0.3628093595203288,0.9363812877095286,-0.6447259998778279,3
1538158229.172091,370,0,72844.44586691668,0.2776947021484375,0.9126739501953125,-0.08465576171875,72844.43499091668,0.3399892647716579,1.026773502480671,-0.6232638509689883,3
1538158229.172614,371,0,72844.45569391667,0.208709716796875,0.8621826171875,-0.129058837890625,72844.44501591667,0.3171702352874229,0.8914889138462808,-0.5638809512985103,3
1538158229.176115,372,0,72844.46549591667,0.147613525390625,0.834686279296875,-0.15606689453125,72844.45499891667,0.2734272817506534,0.6316778421169846,-0.4281289778928113,3
1538158229.187287,373,0,72844.47528591668,0.0918426513671875,0.8394012451171875,-0.1600494384765625,72844.46500291667,0.2439333053102438,0.2815161009295511,-0.3096654473355796,3
1538158229.195202,374,0,72844.48508291667,0.03375244140625,0.8797149658203125,-0.1460723876953125,72844.47503491667,0.2403273851942766,-0.04982135240876635,-0.2209110766348359,3
1538158229.205569,375,0,72844.49490091667,-0.02899169921875,0.944305419921875,-0.1209869384765625,72844.48504291667,0.2617162971731389,-0.2755740559053663,-0.190228797716033,3
1538158229.214071,376,0,72844.50468591668,-0.0683441162109375,0.9913787841796875,-0.1115570068359375,72844.49504691667,0.2911889683248279,-0.3650948843678348,-0.2329387110659607,3
1538158229.258142,377,0,72844.51448191667,-0.1033935546875,1.013519287109375,-0.1143035888671875,72844.50504291667,0.303326058676755,-0.2986490151703579,-0.2780630462601543,3
1538158229.258966,378,0,72844.52430891668,-0.111602783203125,1.0421142578125,-0.0970306396484375,72844.51506191667,0.3162775436900284,-0.226730882564986,-0.3040416500616593,3
1538158229.25979,379,0,72844.53410891668,-0.0873260498046875,1.0726318359375,-0.073333740234375,72844.52506591668,0.3300753812977289,-0.1652555372260329,-0.310754680221422,3
1538158229.260817,380,0,72844.54391391667,-0.058380126953125,1.087554931640625,-0.0594024658203125,72844.53507291667,0.3357084996354645,-0.1008445894174855,-0.3463411702876059,3
1538158229.26442,381,0,72844.55371891666,-0.02874755859375,1.087738037109375,-0.0728759765625,72844.54508091667,0.320668031063133,-0.06758357161515885,-0.4266554508616704,3
1538158229.276465,382,0,72844.56351991667,0.0179443359375,1.07135009765625,-0.1285858154296875,72844.55508491668,0.2403204609754424,-0.0743005965165567,-0.472178461271049,3
1538158229.285983,383,0,72844.57329491667,0.062530517578125,1.076492309570312,-0.182525634765625,72844.56509091667,0.1502539508056166,-0.1720354127291567,-0.4915463002986502,3
1538158229.293517,384,0,72844.58312391667,0.100677490234375,1.088302612304688,-0.221588134765625,72844.57510091667,0.0821217680059014,-0.2832575419663539,-0.4743619870488049,3
1538158229.333859,385,0,72844.59289991666,0.135894775390625,1.105667114257812,-0.247100830078125,72844.58510491667,0.07470592963446676,-0.3415530729637524,-0.4676074115760369,3
1538158229.338379,386,0,72844.60272691667,0.16375732421875,1.135223388671875,-0.2752838134765625,72844.59508891667,0.1405312822979553,-0.3075500984817297,-0.4575987195673011,3
1538158229.339137,387,0,72844.61252991667,0.174530029296875,1.140380859375,-0.3071136474609375,72844.60511991667,0.2604113482390001,-0.1971167975594139,-0.440151552317865,3
1538158229.34075,388,0,72844.62231991667,0.162384033203125,1.133926391601562,-0.344146728515625,72844.61512391666,0.4168219948526619,-0.1250748279633534,-0.4422855432993455,3
1538158229.353962,389,0,72844.63211591667,0.1367340087890625,1.138442993164062,-0.3821258544921875,72844.63513991667,0.7276491130557341,-0.2011482908175758,-0.5056525319605819,3
1538158229.354968,390,0,72844.64192191667,0.08984375,1.15386962890625,-0.3854827880859375,72844.64514391667,0.8615581789870983,-0.270655463688099,-0.5580968317269673,3
1538158229.362059,391,0,72844.65172091668,0.0359344482421875,1.188339233398438,-0.3665924072265625,,,,,3
1538158229.373495,392,0,72844.66154791666,-0.0354766845703125,1.284469604492188,-0.2955780029296875,72844.65512191667,0.9904450557347911,-0.3446090503146183,-0.6339995859553157,3
1538158229.410699,393,0,72844.67133091667,-0.0814971923828125,1.392669677734375,-0.2057342529296875,72844.66515891667,1.000277979111582,-0.270623239438909,-0.6664185122209593,3
1538158229.412408,394,0,72844.68112991667,-0.0970458984375,1.543121337890625,-0.1454315185546875,72844.67516291667,0.9691701270505841,-0.1694779791343536,-0.750603697439454,3
1538158229.414312,395,0,72844.69092591667,-0.0772247314453125,1.6507568359375,-0.1039886474609375,72844.68514691667,0.8521385782114881,-0.0420254809497774,-0.8657004597466076,3
1538158229.418442,396,0,72844.70074991666,-0.0394134521484375,1.654953002929688,-0.0791015625,72844.70518191667,0.4338896616467617,0.559968501341075,-0.7306702029963199,3
1538158229.420943,397,0,72844.71054691667,0.0010528564453125,1.59503173828125,-0.0429534912109375,,,,,3
1538158229.430715,398,0,72844.72035091667,0.0163116455078125,1.48309326171875,0.0153045654296875,,,,,3
1538158229.442231,399,0,72844.73013991668,0.00958251953125,1.359725952148438,0.0454864501953125,72844.72519691667,0.06870263190521014,1.142986928232895,-0.5779059565471947,3
1538158229.454859,400,0,72844.73996491668,0.0102691650390625,1.263809204101562,0.0211334228515625,72844.73520091666,-0.2433410182838102,1.321625116252685,-0.4343458611414923,3
1538158229.493245,401,0,72844.74975691667,0.0264892578125,1.200363159179688,-0.0225677490234375,72844.74520891668,-0.6278338353995642,1.278894696562364,-0.2504436689110516,3
1538158229.494226,402,0,72844.75956691668,0.03802490234375,1.171905517578125,-0.0490875244140625,72844.76522091667,-1.41348233593948,0.6899131856737473,0.172113709665205,3
1538158229.494597,403,0,72844.76937691667,0.0336761474609375,1.178924560546875,-0.0473480224609375,,,,,3
1538158229.494931,404,0,72844.77917891667,0.00201416015625,1.22161865234375,-0.0274658203125,,,,,3
1538158229.504024,405,0,72844.78897691666,-0.0540008544921875,1.2803955078125,0.009857177734375,72844.78522691668,-1.972917139798103,-0.03800597191652081,0.4957482358665772,3
1538158229.510868,406,0,72844.79878491667,-0.1141815185546875,1.3251953125,0.069671630859375,72844.79523091667,-2.151521505672049,-0.4304400690867821,0.6236553356492299,3
1538158229.529231,407,0,72844.80858691667,-0.188018798828125,1.355606079101562,0.131988525390625,72844.80524691667,-2.301164527323602,-0.8166809851420641,0.7336998150523941,3
1538158229.529821,408,0,72844.81839091667,-0.2342376708984375,1.382354736328125,0.198638916015625,,,,,3
1538158229.583888,409,0,72844.82819291667,-0.24853515625,1.39892578125,0.2566986083984375,72844.82525891667,-2.576213674178113,-1.583386420848246,0.8879346590554611,3
1538158229.588999,410,0,72844.83799491667,-0.226226806640625,1.383941650390625,0.2611083984375,,,,,3
1538158229.590291,411,0,72844.84778891667,-0.1944580078125,1.3212890625,0.1749725341796875,72844.83526691668,-2.707520299092252,-1.934837664635496,0.973400025809957,3
1538158229.591214,412,0,72844.85756591667,-0.1510467529296875,1.237075805664062,0.0514678955078125,72844.85526091667,-2.885332640858008,-2.892430764111397,1.388974596008026,3
1538158229.591644,413,0,72844.86739291667,-0.1249847412109375,1.174560546875,-0.05438232421875,,,,,3
1538158229.59238,414,0,72844.87719791668,-0.1364288330078125,1.13690185546875,-0.154296875,72844.86526091667,-2.853333162464053,-3.390772386247493,1.553931060243643,3
1538158229.597528,415,0,72844.88699891667,-0.1488037109375,1.103927612304688,-0.2578582763671875,72844.88527791668,-2.505276650118327,-3.918505985754249,1.65522359335648,3
1538158229.606896,416,0,72844.89679491667,-0.17071533203125,0.9995574951171875,-0.3392791748046875,,,,,3
1538158229.652458,417,0,72844.90660191666,-0.19256591796875,0.8919525146484375,-0.3694000244140625,72844.89530491667,-2.140009725544072,-3.897543179549799,1.6502868916438,3
1538158229.65698,418,0,72844.91640391666,-0.214080810546875,0.8568267822265625,-0.3383331298828125,72844.91530691666,-1.213205697746687,-3.769401987907329,1.684396925201644,3
1538158229.657673,419,0,72844.92618691667,-0.19525146484375,0.9096832275390625,-0.271575927734375,,,,,3
1538158229.658187,420,0,72844.93600991667,-0.1410369873046875,0.9256439208984375,-0.1705474853515625,72844.92532491666,-0.6979277026582318,-3.5114170457375,1.735688076216025,3
1538158229.659975,421,0,72844.94580591666,-0.0108184814453125,0.93170166015625,-0.02679443359375,72844.94533491667,0.02064322687364021,-2.924490163629879,2.165900711345714,3
1538158229.668509,422,0,72844.95560291667,0.16851806640625,0.928070068359375,0.095794677734375,,,,,3
1538158229.679448,423,0,72844.96541591667,0.320770263671875,0.960418701171875,0.2039642333984375,72844.95534391668,-0.0002519350391214959,-2.364676125632029,2.72192027742242,3
1538158229.688204,424,0,72844.97522291668,0.402923583984375,1.04254150390625,0.23492431640625,72844.97535491668,-0.3581062170352489,-0.4558658006459866,4.026166935981792,3
1538158229.696256,425,0,72844.98501891668,0.4255828857421875,1.103546142578125,0.150360107421875,,,,,3
1538158229.73526,426,0,72844.99482591667,0.451873779296875,1.043624877929688,0.0190887451171875,72844.98536291668,-0.7942403908487294,0.3374435490856511,4.196868637637038,3
1538158229.739668,427,0,72845.00462791667,0.4753265380859375,0.9043731689453125,-0.0468292236328125,72845.00534591667,-1.483358889253197,0.5655185290528001,3.658552434906634,3
1538158229.74033,428,0,72845.01442791667,0.4737548828125,0.7919769287109375,-0.037994384765625,,,,,3
1538158229.740943,429,0,72845.02423591667,0.4597930908203125,0.7267913818359375,0.0230865478515625,72845.01538291667,-1.558172943227921,0.6775167034316465,3.235017942526427,3
1538158229.744493,430,0,72845.03403791667,0.369384765625,0.7104034423828125,0.0689239501953125,72845.02536691667,-1.537486040512404,0.9838998047237034,2.720437695643573,3
1538158229.758631,431,0,72845.04382891668,0.22564697265625,0.6981048583984375,0.0855865478515625,72845.03537091667,-1.460029065471885,1.267452691254947,2.268408178547845,3
1538158229.77046,432,0,72845.05364391668,0.11163330078125,0.67333984375,0.0860137939453125,72845.04537591667,-1.309851813705663,1.260870155988598,2.011087695069991,3
1538158229.774258,433,0,72845.06343391667,0.0411376953125,0.6436767578125,0.0932464599609375,72845.06539891667,-0.9966464926491496,1.100175282129326,1.856750053048847,3
1538158229.828407,434,0,72845.07325091667,0.018218994140625,0.606658935546875,0.0968475341796875,,,,,3
1538158229.838851,435,0,72845.08305391668,0.037506103515625,0.5707244873046875,0.081787109375,72845.07540591666,-0.9325511294297766,1.213363090567111,1.821396589578045,3
1538158229.843298,436,0,72845.09283891667,0.0818023681640625,0.5470123291015625,0.057281494140625,72845.09541591667,-1.053832018104203,1.421648653106099,1.606560449705789,3
1538158229.843954,437,0,72845.10265891667,0.1091766357421875,0.535400390625,0.035736083984375,,,,,3
1538158229.845046,438,0,72845.11246091667,0.145538330078125,0.51898193359375,0.069000244140625,72845.10543091666,-1.058013713647846,1.216680856653132,1.464218217866579,3
1538158229.845776,439,0,72845.12225891667,0.1565399169921875,0.5115966796875,0.1236724853515625,72845.12545091668,-0.8680951741988068,0.8248033601506968,1.073818243136921,3
1538158229.846221,440,0,72845.13206591667,0.138092041015625,0.5118408203125,0.18646240234375,,,,,3
1538158229.856217,441,0,72845.14186891667,0.1609039306640625,0.5071868896484375,0.2532196044921875,72845.13543391667,-0.7243095090487747,0.6812344763133971,0.9250735057210521,3
1538158229.904659,442,0,72845.15164591667,0.19610595703125,0.4873046875,0.272064208984375,72845.15547191667,-0.6107576464899761,0.83876152005602,0.5031281215632958,3
1538158229.905318,443,0,72845.16147391667,0.2003173828125,0.490966796875,0.285247802734375,,,,,3
1538158229.906351,444,0,72845.17127591667,0.21441650390625,0.491119384765625,0.3165435791015625,72845.16546291667,-0.5045790117251709,0.7526639188587393,0.3716792838469468,3
1538158229.907236,445,0,72845.18106491667,0.253448486328125,0.488616943359375,0.3296661376953125,72845.18549091667,-0.289008372024271,0.5250443394379939,0.201926732804206,3
1538158229.907634,446,0,72845.19087891668,0.260955810546875,0.464080810546875,0.3134002685546875,,,,,3
1538158229.911164,447,0,72845.20068091668,0.2647552490234375,0.429901123046875,0.308349609375,72845.19549191667,-0.2290643443121134,0.3259176542038972,0.1251917407352079,3
1538158229.921402,448,0,72845.21045891667,0.2613067626953125,0.3921356201171875,0.296600341796875,72845.20550591667,-0.1850481504475018,0.1384233902951576,0.04287875776303879,3
1538158229.930841,449,0,72845.22028291668,0.27978515625,0.3813934326171875,0.2918853759765625,72845.21550991667,-0.1466794559905122,-0.04672249816435015,-0.01393845251325672,3
1538158229.974412,450,0,72845.23008591667,0.3395538330078125,0.38671875,0.2777862548828125,72845.22551891668,-0.06365700690394602,-0.2127740542402078,-0.06831034827664147,3
1538158229.975528,451,0,72845.23988191667,0.402801513671875,0.402862548828125,0.2545623779296875,72845.24552991668,0.2442768530908641,-0.5645296973400536,-0.1093928038844218,3
1538158229.976889,452,0,72845.24968991667,0.51763916015625,0.444732666015625,0.2618255615234375,,,,,3
1538158229.977763,453,0,72845.25949291667,0.5885467529296875,0.5110931396484375,0.25213623046875,72845.25553791667,0.3784149508759752,-0.6024118322658858,-0.1855126057416116,3
1538158229.985741,454,0,72845.26929291667,0.6234283447265625,0.59967041015625,0.2810211181640625,72845.27553291667,0.736620237503775,-0.7300510180428765,-0.1968640635719654,3
1538158229.989772,455,0,72845.27909791667,0.6123809814453125,0.68585205078125,0.33343505859375,,,,,3
1538158230.004963,456,0,72845.28889991668,0.560760498046875,0.7631683349609375,0.402557373046875,72845.28555691667,0.8277237826020777,-0.6450114907466843,-0.1731283740405252,3
1538158230.022723,457,0,72845.29870191668,0.5147552490234375,0.79931640625,0.4639892578125,72845.29553891667,0.8080488811007902,-0.4507543955657975,-0.1651996108431412,3
1538158230.089307,458,0,72845.30850391668,0.521728515625,0.8008270263671875,0.49078369140625,72845.30554291667,0.6943670562807958,-0.1481628367176863,-0.1515897924084003,3
1538158230.098386,459,0,72845.31830491667,0.5704345703125,0.8506927490234375,0.47564697265625,72845.31557591667,0.5695899697273132,0.1854734572735875,-0.1074281899482704,3
1538158230.148363,460,0,72845.32809991667,0.6373748779296875,0.9287261962890625,0.481536865234375,,,,,3
1538158230.164747,461,0,72845.33790491667,0.67767333984375,1.010055541992188,0.469329833984375,72845.33556491668,0.302821123334076,0.5904355968437995,-0.04607934476109602,3
1538158230.173292,462,0,72845.34769191667,0.66644287109375,1.03997802734375,0.4323577880859375,72845.34559491667,0.2574376625658177,0.4905843665129136,-0.06177681517435007,3
1538158230.173977,463,0,72845.35751491667,0.59417724609375,0.9825897216796875,0.4175262451171875,,,,,3
1538158230.174602,464,0,72845.36731191668,0.487548828125,0.8555145263671875,0.4446868896484375,72845.36559391668,0.3851857716313926,-0.3823042313319269,-0.2531552995329702,3
1538158230.175877,465,0,72845.37711091667,0.4274444580078125,0.756134033203125,0.407989501953125,,,,,3
1538158230.176372,466,0,72845.38689391667,0.441680908203125,0.7247772216796875,0.28924560546875,72845.37561491667,0.4181589017198817,-0.8570739483436229,-0.4261201554825645,3
1538158230.23127,467,0,72845.39669691666,0.480224609375,0.7387237548828125,0.243988037109375,72845.39562391667,0.4374726785773543,-1.568235431090676,-0.5740094855562997,3
1538158230.239855,468,0,72845.40651191668,0.470123291015625,0.825653076171875,0.335784912109375,72845.40563391667,0.3988680280477837,-1.855896776235585,-0.5892925681039375,3
1538158230.240407,469,0,72845.41632591667,0.406280517578125,0.94879150390625,0.43658447265625,,,,,3
1538158230.241428,470,0,72845.42611691667,0.4371490478515625,1.0177001953125,0.532379150390625,72845.42564291667,0.6468232392362652,-1.2652694317933,-1.102612074526748,3
1538158230.241858,471,0,72845.43590691667,0.579833984375,1.069000244140625,0.56390380859375,,,,,3
1538158230.243348,472,0,72845.44572191667,0.6775054931640625,1.16156005859375,0.3946990966796875,72845.43565291667,0.8073660465972939,-0.9721328937632973,-1.302410675303872,3
1538158230.244585,473,0,72845.45552491667,0.6016998291015625,1.213027954101562,0.19000244140625,72845.45565191667,1.017748848494719,-1.016234575098901,-1.59932011365019,3
1538158230.245062,474,0,72845.46533491668,0.574127197265625,1.18597412109375,0.1026611328125,,,,,3
1538158230.245505,475,0,72845.47512991667,0.6317291259765625,1.189605712890625,0.0692901611328125,72845.46567291667,1.230996146460634,-0.974171277261644,-1.628348569532054,3
1538158230.245988,476,0,72845.48494591667,0.6520233154296875,1.268402099609375,0.046875,72845.47567991666,1.364007727104642,-0.9334904263462476,-1.456815162668377,3
1538158230.247063,477,0,72845.49474291666,0.6116180419921875,1.312744140625,0.012664794921875,72845.48568391668,1.367195530929467,-0.8825156588693679,-1.208910551540607,3
1538158230.24756,478,0,72845.50454891667,0.561431884765625,1.222076416015625,-0.0066070556640625,72845.49569191667,1.285674572065487,-0.7679416750841969,-1.095535789194299,3
1538158230.248036,479,0,72845.51435091667,0.51544189453125,1.074676513671875,-0.0333099365234375,72845.50569991667,1.229134064226451,-0.5604870188053134,-1.036941451522594,3
1538158230.248514,480,0,72845.52415091667,0.4925384521484375,0.9560546875,-0.028778076171875,72845.51570391667,1.231243287809794,-0.3976237991864986,-0.9774110127277253,3
1538158230.355124,481,0,72845.53395791668,0.481231689453125,0.8914031982421875,-0.01239013671875,72845.52569591667,1.314576794111681,-0.3335489423075192,-0.9248298264813098,3
1538158230.371239,482,0,72845.54375091667,0.4614715576171875,0.87493896484375,-0.0024871826171875,72845.54572291666,1.515120813677918,-0.3678155697374598,-0.9470224804771582,3
1538158230.408035,483,0,72845.55356191668,0.4134521484375,0.8822174072265625,-0.02117919921875,,,,,3
1538158230.423515,484,0,72845.56336391668,0.3575286865234375,0.893157958984375,-0.0406494140625,72845.55572191667,1.556218715620021,-0.4410740713194685,-1.070711133093125,3
1538158230.561427,485,0,72845.57314991667,0.3091888427734375,0.90911865234375,-0.0662994384765625,72845.57574291667,1.565778931301187,-0.604028637363673,-1.382637870510291,3
1538158230.562111,486,0,72845.58296991666,0.272064208984375,0.944671630859375,-0.08306884765625,,,,,3
1538158230.605422,487,0,72845.59277291667,0.244781494140625,1.0050048828125,-0.0916595458984375,72845.58571991666,1.522133449460315,-0.6153526646347989,-1.467172462463805,3
1538158230.646798,488,0,72845.60257391667,0.2215423583984375,1.068740844726562,-0.090545654296875,72845.60576191667,1.246572975676508,-0.3062954832921934,-1.453139734047959,3
1538158230.653868,489,0,72845.61237991667,0.21051025390625,1.116012573242188,-0.08282470703125,,,,,3
1538158230.661954,490,0,72845.62218291668,0.199981689453125,1.124176025390625,-0.07464599609375,72845.61574991667,1.045279542579523,-0.05112576871068717,-1.408107810543591,3
1538158230.705656,491,0,72845.63196391668,0.212127685546875,1.087432861328125,-0.0676422119140625,72845.63578191667,0.6381322793349006,0.3842014672924993,-1.281301395239468,3
1538158230.706386,492,0,72845.64178691668,0.2067718505859375,1.035385131835938,-0.0670166015625,,,,,3
1538158230.707402,493,0,72845.65158591667,0.2003021240234375,0.96563720703125,-0.0710906982421875,72845.64577891667,0.4414455822915345,0.3933187992843856,-1.222654326978179,3
1538158230.707999,494,0,72845.66137291667,0.1827850341796875,0.8759307861328125,-0.0556182861328125,72845.65579691668,0.2768180184505423,0.2574997142192165,-1.233976756352651,3
1538158230.708481,495,0,72845.67119691666,0.1658477783203125,0.800018310546875,-0.027923583984375,72845.66580091667,0.1648443451537247,0.1266146677056372,-1.28421888821365,3
1538158230.708963,496,0,72845.68100091667,0.1594390869140625,0.74725341796875,-0.0006103515625,72845.67580591668,0.1144157920164203,0.0668325601877565,-1.329036693566375,3
1538158230.709565,497,0,72845.69077991667,0.1814727783203125,0.7248687744140625,0.01556396484375,72845.69581991667,0.228913609394415,0.1667144168711783,-1.305172639670393,3
1538158230.709923,498,0,72845.70060691667,0.2064361572265625,0.7348785400390625,0.013885498046875,,,,,3
1538158230.710227,499,0,72845.71040691667,0.2129974365234375,0.750579833984375,-0.0100250244140625,,,,,3
1538158230.710734,500,0,72845.72020191667,0.219146728515625,0.7580108642578125,-0.0420989990234375,72845.71583491667,0.467944035137823,0.3597997211724303,-1.29245205072363,3
1538158230.711197,501,0,72845.73001091667,0.237640380859375,0.7657470703125,-0.0781707763671875,72845.72583891667,0.5631877304667627,0.4311466057239801,-1.256850913271451,3
1538158230.711553,502,0,72845.73981291667,0.2507781982421875,0.7955474853515625,-0.11083984375,,,,,3
1538158230.712082,503,0,72845.74960891667,0.271759033203125,0.85223388671875,-0.12298583984375,72845.74585391667,0.5000511052398182,0.7023205868763175,-1.192409871742585,3
1538158230.713039,504,0,72845.75938591667,0.3043670654296875,0.8864593505859375,-0.1188812255859375,72845.75585791667,0.3213796277064022,0.965771400867425,-1.169583119091189,3
1538158230.713541,505,0,72845.76921891667,0.334014892578125,0.8854217529296875,-0.1034698486328125,,,,,3
1538158230.713971,506,0,72845.77902191668,0.343475341796875,0.849761962890625,-0.0782928466796875,72845.76584291668,0.104358097843627,1.232433720817059,-1.146108153030468,3
1538158230.714854,507,0,72845.78882491667,0.3360443115234375,0.8240966796875,-0.0766448974609375,72845.78585091667,-0.03127989226741668,1.162550775916726,-1.01698638547463,3
1538158230.715349,508,0,72845.79862691667,0.292694091796875,0.8392181396484375,-0.0934600830078125,,,,,3
1538158230.721206,509,0,72845.80842991667,0.248321533203125,0.8789520263671875,-0.10284423828125,72845.79586291667,0.08114651841471439,0.8163385026258799,-0.9226689375728195,3
1538158230.722506,510,0,72845.81823191667,0.2160491943359375,0.9191436767578125,-0.1206512451171875,72845.81588091668,0.3797156387523699,0.1120477091751218,-0.7513022445933818,3
1538158230.723349,511,0,72845.82802991667,0.2091217041015625,0.9526214599609375,-0.137786865234375,,,,,3
1538158230.723885,512,0,72845.83783791667,0.2191925048828125,0.9756011962890625,-0.1274566650390625,72845.82588091667,0.4438173935583591,-0.09580109494509341,-0.7331022017037803,3
1538158230.724841,513,0,72845.84763991667,0.2344818115234375,0.9950408935546875,-0.0827789306640625,72845.84590891667,0.3821455069309582,0.01542076797599482,-0.7590754791831051,3
1538158230.725384,514,0,72845.85742791666,0.255859375,1.014404296875,-0.021759033203125,72845.85592291667,0.31189877422572,0.3541671354669127,-0.7335717170039613,3
1538158230.725753,515,0,72845.86724291668,0.2761688232421875,1.022415161132812,0.0146942138671875,,,,,3
1538158230.726276,516,0,72845.87704491668,0.2981109619140625,1.033111572265625,0.03863525390625,72845.87590891667,0.2676215905742806,0.9568580670150388,-0.614956918896813,3
1538158230.726634,517,0,72845.88681591667,0.280792236328125,1.02349853515625,0.0135040283203125,,,,,3
1538158230.727047,518,0,72845.89664691668,0.2775421142578125,1.0263671875,-0.0369720458984375,72845.88593691667,0.2857545218044122,1.113319313689412,-0.5584105521033786,3
1538158230.727612,519,0,72845.90643891667,0.2369537353515625,1.019882202148438,-0.10968017578125,72845.90595591668,0.3464756599226548,1.071631255249748,-0.4679754604386859,3
1538158230.727968,520,0,72845.91623491667,0.2048187255859375,1.004348754882812,-0.184722900390625,,,,,3
1538158230.728371,521,0,72845.92605291666,0.1789703369140625,1.012985229492188,-0.2317047119140625,72845.91595091666,0.3922490074745008,0.7389286655366557,-0.4106687611540338,3
1538158230.729039,522,0,72845.93585591667,0.1262969970703125,0.990234375,-0.243743896484375,72845.93596791667,0.4804017700849956,-0.05877410104528573,-0.2578051787962486,3
1538158230.729406,523,0,72845.94565691667,0.080047607421875,0.9776763916015625,-0.22357177734375,,,,,3
1538158230.729816,524,0,72845.95544991667,0.0277099609375,0.9664764404296875,-0.164794921875,72845.94595191667,0.5203854054270093,-0.4176355905656811,-0.1588080242269511,3
1538158230.730823,525,0,72845.96525991667,-0.02349853515625,0.9605865478515625,-0.0903167724609375,72845.96599391667,0.5220253800262801,-0.617541783050844,-0.08590345675381392,3
1538158230.731265,526,0,72845.97503291667,-0.0623779296875,0.9633331298828125,-0.01275634765625,,,,,3
1538158230.732074,527,0,72845.98483691667,-0.0870513916015625,0.9739532470703125,0.04351806640625,72845.97597891667,0.4743239038452168,-0.3983468474224552,-0.1402465903774258,3
1538158230.787234,528,0,72845.99463391668,-0.093017578125,0.9800872802734375,0.0540618896484375,72845.99601391667,0.317544675736688,0.3417701205925938,-0.3306727283302336,3
1538158230.791731,529,0,72846.00446091667,-0.07000732421875,0.9721832275390625,0.0223541259765625,,,,,3
1538158230.792639,530,0,72846.01425691668,-0.035430908203125,0.9580535888671875,-0.0178985595703125,72846.00600191667,0.2251633459473654,0.5747338653728014,-0.3909046437562287,3
1538158230.793534,531,0,72846.02405891666,0.0193023681640625,0.9512786865234375,-0.0592041015625,72846.02603291668,0.09080420579177774,0.4043615967443991,-0.3473182840915559,3
1538158230.793957,532,0,72846.03385191667,0.0562591552734375,0.9350433349609375,-0.072296142578125,,,,,3
1538158230.794654,533,0,72846.04366991667,0.076141357421875,0.9170074462890625,-0.0651397705078125,72846.03603691667,0.1248053160610374,0.1215040615737752,-0.2937029923938627,3
1538158230.79577,534,0,72846.05347291667,0.079132080078125,0.8975677490234375,-0.0672760009765625,72846.05605291667,0.2766294666453647,-0.3324852757681416,-0.2663624480108912,3
1538158230.796241,535,0,72846.06326791667,0.065032958984375,0.878936767578125,-0.0925750732421875,,,,,3
1538158230.796597,536,0,72846.07305491668,0.055389404296875,0.8892059326171875,-0.1199493408203125,,,,,3
1538158230.797253,537,0,72846.08285491668,0.0395050048828125,0.9248199462890625,-0.1422576904296875,72846.08607191667,0.2593785743682674,-0.7427873196400715,-0.3508267325116263,3
1538158230.803023,538,0,72846.09267191667,0.0170440673828125,0.9810028076171875,-0.145172119140625,,,,,3
1538158230.812938,539,0,72846.10247391668,-0.0027008056640625,1.0208740234375,-0.1468048095703125,72846.09605891666,0.2274382181505111,-0.6972134428538725,-0.3589547001585481,3
1538158230.864175,540,0,72846.11227991668,-0.0195159912109375,1.022003173828125,-0.1251678466796875,72846.11608091668,0.2050229238875321,-0.4304808154514603,-0.3143068044833697,3
1538158230.865173,541,0,72846.12207991668,-0.01593017578125,1.010299682617188,-0.0984649658203125,,,,,3
1538158230.870721,542,0,72846.13188391668,0.0135650634765625,1.0140380859375,-0.0758819580078125,,,,,3
1538158230.872381,543,0,72846.14169791667,0.0532073974609375,1.023361206054688,-0.0760040283203125,72846.13610791667,0.2691704850642708,-0.2699662375979864,-0.2764976401714058,3
1538158230.872936,544,0,72846.15150291668,0.09393310546875,1.030685424804688,-0.089996337890625,72846.14611191668,0.3054608486065625,-0.3145464889814769,-0.2757908372180987,3
1538158230.880845,545,0,72846.16128991666,0.1214447021484375,1.031295776367188,-0.115936279296875,72846.15610991667,0.3163632974771289,-0.3952533195002191,-0.2825312979370893,3
1538158230.886996,546,0,72846.17108491667,0.1130218505859375,1.027572631835938,-0.1370697021484375,72846.17612991667,0.358581857605937,-0.6415666918766668,-0.2962308649005659,3
1538158230.891669,547,0,72846.18090991667,0.066436767578125,1.019851684570312,-0.1385955810546875,,,,,3
1538158230.92913,548,0,72846.19071291666,0.004547119140625,1.014541625976562,-0.1236114501953125,,,,,3
1538158230.940622,549,0,72846.20050991667,-0.01483154296875,1.002655029296875,-0.1153564453125,72846.19614591668,0.3732164604281405,-0.6784669193085867,-0.268101492202713,3
1538158230.941534,550,0,72846.21031991667,0.022674560546875,0.9999847412109375,-0.1106414794921875,72846.20614991667,0.3332285640283827,-0.6088492252528254,-0.318045882653841,3
1538158230.942174,551,0,72846.22012091667,0.0847930908203125,0.9990692138671875,-0.128326416015625,72846.21614191667,0.2625626497675662,-0.4132735990162403,-0.4054766622928153,3
1538158230.945106,552,0,72846.22991791667,0.1428680419921875,1.03564453125,-0.152679443359375,72846.23616791666,0.2720733306524571,0.1853962256019752,-0.5004399267589698,3
1538158230.953862,553,0,72846.23972591668,0.163299560546875,1.013381958007812,-0.213409423828125,,,,,3
1538158230.960063,554,0,72846.24952991668,0.16925048828125,1.027664184570312,-0.263031005859375,,,,,3
1538158230.969777,555,0,72846.25933291667,0.1488189697265625,1.01605224609375,-0.31060791015625,72846.24617691667,0.3684478041802446,0.4357538744098172,-0.5002665549720057,3
1538158231.01466,556,0,72846.26913491667,0.117767333984375,1.033233642578125,-0.34246826171875,72846.26616791668,0.5652298423906356,0.7452835005298027,-0.2789557378575489,3
1538158231.020753,557,0,72846.27893891667,0.083404541015625,1.059173583984375,-0.3477020263671875,72846.27619591667,0.6739906781483815,0.6801734729351095,-0.1942451109559815,3
1538158231.022788,558,0,72846.28874191667,0.06170654296875,1.141387939453125,-0.3149566650390625,,,,,3
1538158231.023595,559,0,72846.29854291667,0.0274200439453125,1.227432250976562,-0.2812042236328125,72846.29619691666,0.7220942916540468,0.6055354539084398,-0.1111502238877651,3
1538158231.024073,560,0,72846.30834491667,-0.0072174072265625,1.313323974609375,-0.269775390625,,,,,3
1538158231.029226,561,0,72846.31814891667,-0.0331268310546875,1.373001098632812,-0.25927734375,72846.30621591667,0.6461377415716788,0.6460871415109674,-0.0898585172886906,3
1538158231.041686,562,0,72846.32795091668,-0.0407562255859375,1.408493041992188,-0.2242279052734375,72846.32620791667,0.5430089588872323,0.4715289162811786,-0.1588604885004256,3
1538158231.059501,563,0,72846.33774891667,-0.0218505859375,1.441329956054688,-0.18536376953125,72846.33623591666,0.4426557226908665,0.4657245566853509,-0.2227084440545303,3
1538158231.095091,564,0,72846.34755591667,-0.0102691650390625,1.457901000976562,-0.164886474609375,,,,,3
1538158231.107002,565,0,72846.35736091668,-0.0151519775390625,1.461898803710938,-0.159149169921875,72846.35622491667,0.2057425100140715,0.6561901094222919,-0.2990194608779879,3
1538158231.107924,566,0,72846.36715091667,-0.040374755859375,1.43511962890625,-0.142852783203125,,,,,3
1538158231.108587,567,0,72846.37696891667,-0.070648193359375,1.391769409179688,-0.1060333251953125,72846.36625391667,0.09986641034909936,0.7699379806373203,-0.2817805528257959,3
1538158231.109379,568,0,72846.38677291667,-0.1177215576171875,1.352859497070312,-0.0667572021484375,72846.38623491667,-0.08761054301255472,0.9647261101395689,-0.2244333734925747,3
1538158231.109762,569,0,72846.39655091667,-0.15386962890625,1.305953979492188,-0.0475616455078125,,,,,3
1538158231.120667,570,0,72846.40637991668,-0.1725616455078125,1.25323486328125,-0.04534912109375,72846.39627391667,-0.25059174066766,1.056724477364138,-0.1500811116508704,3
1538158231.126509,571,0,72846.41616291668,-0.180267333984375,1.205902099609375,-0.07098388671875,72846.41628591667,-0.7782731422170504,0.8985087401636207,-0.07758853519836853,3
1538158231.13965,572,0,72846.42596591667,-0.169525146484375,1.186004638671875,-0.103179931640625,,,,,3
1538158231.176631,573,0,72846.43578991666,-0.14666748046875,1.194000244140625,-0.1334075927734375,72846.42629391667,-1.111017543559257,0.6546260349140883,-0.08129911754517592,3
1538158231.177598,574,0,72846.44559191666,-0.1253204345703125,1.217864990234375,-0.1472015380859375,72846.43630191668,-1.404072322543794,0.3501252558804994,-0.0979987354766268,3
1538158231.178302,575,0,72846.45539191666,-0.1091461181640625,1.244033813476562,-0.1533355712890625,72846.44630591667,-1.606456586423276,0.04122333682944554,-0.1265214570674844,3
1538158231.179866,576,0,72846.46518191668,-0.0904693603515625,1.239852905273438,-0.14776611328125,72846.45631391667,-1.710037573860818,-0.232612473832426,-0.1425744594862641,3
1538158231.186156,577,0,72846.47500391667,-0.075836181640625,1.211380004882812,-0.1324920654296875,72846.46632091668,-1.77544853865869,-0.4862245054923449,-0.1487987995859973,3
1538158231.197729,578,0,72846.48480791667,-0.0547027587890625,1.182479858398438,-0.08984375,72846.47632491667,-1.849830627904603,-0.7193842589287821,-0.122239094034637,3
1538158231.205325,579,0,72846.49461191667,-0.0116119384765625,1.1644287109375,-0.0279083251953125,72846.48630391667,-1.942789331018255,-0.8610836036808462,-0.07311628877979846,3
1538158231.215035,580,0,72846.50441491666,0.036895751953125,1.15093994140625,0.0294036865234375,72846.49634091667,-2.048096046842168,-0.8052626819683494,-0.006424876129816163,3
1538158231.25515,581,0,72846.51421491666,0.09075927734375,1.11907958984375,0.0742034912109375,72846.50634491668,-2.148404541932221,-0.6072420075349625,0.062446333872396,3
1538158231.256208,582,0,72846.52402191667,0.1420135498046875,1.083328247070312,0.08917236328125,72846.51632991667,-2.262015526667219,-0.405668409891301,0.1727078609044017,3
1538158231.256827,583,0,72846.53381491668,0.178314208984375,1.038925170898438,0.05853271484375,72846.52635991666,-2.397161364608816,-0.3691998808720829,0.3298037388665408,3
1538158231.26062,584,0,72846.54362691667,0.1961669921875,0.988983154296875,0.0125885009765625,72846.53636391668,-2.522504106577831,-0.6147206965081231,0.5168199653596112,3
1538158231.272436,585,0,72846.55342891667,0.18353271484375,0.9487152099609375,-0.0185089111328125,72846.55637891668,-2.557322274669527,-1.334963824888456,0.7829121025198593,3
1538158231.277852,586,0,72846.56320391667,0.1385650634765625,0.939361572265625,-0.0359039306640625,72846.56638291667,-2.465310059007289,-1.470194085036608,0.8562574231534046,3
1538158231.286086,587,0,72846.57303391668,0.063568115234375,0.94305419921875,-0.0603179931640625,,,,,3
1538158231.329036,588,0,72846.58283791668,-0.029876708984375,0.95074462890625,-0.08587646484375,72846.57638191668,-2.301930985085326,-1.487875077829753,0.9081421927747644,3
1538158231.339736,589,0,72846.59261591667,-0.09747314453125,0.97100830078125,-0.0902099609375,72846.59640191667,-1.872590535212638,-1.527783878345136,0.9842297703827643,3
1538158231.340749,590,0,72846.60244291667,-0.159332275390625,0.996185302734375,-0.0796356201171875,,,,,3
1538158231.34138,591,0,72846.61221791667,-0.1985015869140625,1.01495361328125,-0.0540618896484375,72846.60638091667,-1.691030060528704,-1.50632865365513,1.023221378218723,3
1538158231.342285,592,0,72846.62204491667,-0.2070159912109375,1.006668090820312,-0.0249786376953125,72846.62642191668,-1.399138550308313,-1.205251634518947,1.133696224454044,3
1538158231.342957,593,0,72846.63184191668,-0.178070068359375,0.968505859375,-0.008392333984375,,,,,3
1538158231.360606,594,0,72846.64163591668,-0.09454345703125,0.9168548583984375,-0.0197906494140625,72846.63642991667,-1.214118096736148,-0.9907228234364864,1.289540683019955,3
1538158231.364226,595,0,72846.65143391668,0.00640869140625,0.8757171630859375,-0.0435638427734375,72846.65644091667,-0.7059006743297109,-0.6935763637531512,1.814599936160054,3
1538158231.371475,596,0,72846.66126091668,0.1273956298828125,0.869232177734375,-0.060089111328125,,,,,3
1538158231.412979,597,0,72846.67106291668,0.2203216552734375,0.8812255859375,-0.08673095703125,72846.66644891667,-0.520243725257017,-0.6560015576171143,2.119880222444709,3
1538158231.413775,598,0,72846.68085291667,0.2746429443359375,0.919281005859375,-0.099273681640625,72846.67645091667,-0.4241664605068824,-0.786430138319854,2.378623100260774,3
1538158231.414875,599,0,72846.69066091668,0.3002471923828125,0.9627532958984375,-0.0750274658203125,72846.68645491666,-0.4039962110428403,-1.014508314080311,2.507333675744304,3
1538158231.416032,600,0,72846.70047491667,0.3264923095703125,0.983978271484375,-0.0184326171875,72846.69644891667,-0.4291215380310838,-1.174781609539024,2.499755917178592,3
1538158231.423484,601,0,72846.71026891666,0.342926025390625,0.9940032958984375,0.064117431640625,72846.70645091667,-0.4656696955668952,-1.114873001869364,2.431806693545766,3
1538158231.43175,602,0,72846.72007291667,0.3585357666015625,1.008163452148438,0.1375732421875,72846.71645491668,-0.5008777504421789,-0.8146484605981156,2.301334703317258,3
1538158231.453485,603,0,72846.72987691667,0.35955810546875,1.018295288085938,0.1645660400390625,72846.72648791668,-0.5417828395213599,-0.3880779645752186,2.17944474970153,3
1538158231.455107,604,0,72846.73968091667,0.3696136474609375,1.064407348632812,0.1437835693359375,,,,,3
1538158231.487613,605,0,72846.74948491667,0.3915863037109375,1.12542724609375,0.089630126953125,72846.74648391666,-0.5977758014402759,0.274153525779918,1.946952384434266,3
1538158231.49226,606,0,72846.75928891667,0.3989410400390625,1.118453979492188,0.07470703125,,,,,3
1538158231.49326,607,0,72846.76909991667,0.3813018798828125,1.067733764648438,0.0469207763671875,72846.75650791667,-0.6224920668850833,0.4928991861324105,1.842771120487021,3
1538158231.494058,608,0,72846.77890791667,0.3403167724609375,1.011123657226562,0.01397705078125,72846.77651291667,-0.7439444631337109,0.7804534722014982,1.713641097131804,3
1538158231.503145,609,0,72846.78871191667,0.26324462890625,0.9111785888671875,0.0076904296875,,,,,3
1538158231.509206,610,0,72846.79851491668,0.1853485107421875,0.8314361572265625,0.04644775390625,72846.78652691667,-0.8353063348577512,0.7909508542702635,1.694512676286201,3
1538158231.519616,611,0,72846.80831691666,0.1046142578125,0.7887420654296875,0.09222412109375,72846.80651191667,-1.020819473231581,0.9617998287337899,1.683869619305808,3
1538158231.528473,612,0,72846.81808991668,0.0295562744140625,0.7792510986328125,0.1362762451171875,,,,,3
1538158231.539718,613,0,72846.82792091666,-0.0416412353515625,0.7540435791015625,0.185516357421875,72846.81654691667,-1.035611202558099,1.0835710053649,1.654035823510304,3
1538158231.574577,614,0,72846.83772391667,-0.0716552734375,0.718414306640625,0.2195281982421875,72846.83654491667,-0.9746636957471996,1.174163489850016,1.704057445633045,3
1538158231.575476,615,0,72846.84750791667,-0.0490570068359375,0.69964599609375,0.2639312744140625,,,,,3
1538158231.576059,616,0,72846.85733191668,-0.0152435302734375,0.68597412109375,0.2546234130859375,72846.84656691668,-0.9804981490633452,1.249749061592536,1.732197737291367,3
1538158231.577669,617,0,72846.86713491667,0.0574493408203125,0.6736602783203125,0.26947021484375,72846.85656691667,-0.9693991589043309,1.18373782028496,1.707235928394054,3
1538158231.588148,618,0,72846.87692091666,0.135955810546875,0.6799468994140625,0.2726593017578125,72846.86657091667,-0.9112117522471896,0.9119896616016018,1.69815295118023,3
1538158231.597276,619,0,72846.88673991668,0.2382354736328125,0.6705169677734375,0.2826385498046875,72846.87658591667,-0.8206493614823911,0.5636375383748772,1.667602232419277,3
1538158231.606724,620,0,72846.89652091668,0.3027191162109375,0.6448211669921875,0.297454833984375,72846.88656591668,-0.7392796701683281,0.2860045926307706,1.593807370193726,3
1538158231.654721,621,0,72846.90631891668,0.336029052734375,0.6257171630859375,0.30767822265625,72846.89656991667,-0.6503950708902795,0.1365256217023671,1.493555866751001,3
1538158231.659279,622,0,72846.91614591666,0.3194580078125,0.603851318359375,0.2881622314453125,72846.90660491667,-0.549618924712809,0.03671220825896031,1.370678413003072,3
1538158231.660236,623,0,72846.92594791666,0.341156005859375,0.5977783203125,0.27630615234375,72846.91661291667,-0.4861360885441542,-0.02280171893714943,1.242854137530321,3
1538158231.661795,624,0,72846.93574491667,0.3592376708984375,0.5855255126953125,0.2509918212890625,72846.92661691667,-0.4290831885113867,-0.04837898436237944,1.112578155958043,3
1538158231.662714,625,0,72846.94555391667,0.3364410400390625,0.5921173095703125,0.24285888671875,72846.93662391667,-0.436320062457568,0.02838769932359063,0.9116189495778628,3
1538158231.666045,626,0,72846.95535691667,0.4025421142578125,0.58624267578125,0.29010009765625,72846.94663191667,-0.402273678449777,-0.01261805724479543,0.8355619983223989,3
1538158231.678481,627,0,72846.96515891668,0.4242401123046875,0.5744781494140625,0.2727813720703125,72846.95663591668,-0.3886430873585335,0.1576740502347953,0.6532928564723947,3
1538158231.686021,628,0,72846.97496191667,0.44024658203125,0.583953857421875,0.259613037109375,72846.96662791667,-0.4113033924417997,0.3397019096900383,0.4758909078306194,3
1538158231.695285,629,0,72846.98476391667,0.4276123046875,0.6035614013671875,0.25244140625,72846.97665191667,-0.3865285374530106,0.3556968551970542,0.3652157918813244,3
1538158231.731941,630,0,72846.99456591667,0.486083984375,0.61077880859375,0.279754638671875,72846.98665591667,-0.3018485369039791,0.2524857808349243,0.3380912298627584,3
1538158231.737925,631,0,72847.00436891668,0.48541259765625,0.5816802978515625,0.274810791015625,72846.99666191667,-0.2208266544282803,0.2738786875554218,0.2418033090703985,3
1538158231.739045,632,0,72847.01414591668,0.4616241455078125,0.56781005859375,0.3046722412109375,72847.00666291667,-0.1515887271439643,0.2317570664902926,0.1618536152495657,3
1538158231.73988,633,0,72847.02394191668,0.4389190673828125,0.557586669921875,0.330047607421875,72847.01666691666,-0.05083654941630456,0.09138424227719699,0.1330419406804345,3
1538158231.753444,634,0,72847.03376791667,0.4279327392578125,0.545501708984375,0.3361358642578125,72847.02664891667,0.0379015760017897,-0.05089034527032416,0.1286272185414101,3
1538158231.755355,635,0,72847.04355291667,0.4304046630859375,0.5453338623046875,0.326080322265625,72847.04668591668,0.126337698952269,-0.3081256075932958,0.08245386419383428,3
1538158231.763975,636,0,72847.05337691667,0.440155029296875,0.5532684326171875,0.303924560546875,,,,,3
1538158231.77903,637,0,72847.06317791667,0.44671630859375,0.5615997314453125,0.2810211181640625,72847.05669791668,0.1419864335175746,-0.3203074390515362,0.0251703344106659,3
1538158231.823296,638,0,72847.07296791667,0.4446258544921875,0.574981689453125,0.270843505859375,72847.07671391667,0.145359593354269,-0.310583971595548,-0.07608784392410887,3
1538158231.824006,639,0,72847.08278291667,0.457794189453125,0.600006103515625,0.2773895263671875,,,,,3
1538158231.824622,640,0,72847.09258491667,0.4775543212890625,0.6324005126953125,0.28985595703125,72847.08669591667,0.1553336642688337,-0.3532432848847642,-0.1001710759778044,3
1538158231.825289,641,0,72847.10236191667,0.49896240234375,0.66131591796875,0.315277099609375,72847.10673291667,0.2707944806970011,-0.5210325535718985,-0.1083821342507367,3
1538158231.825985,642,0,72847.11218791667,0.5229034423828125,0.6778411865234375,0.352020263671875,,,,,3
1538158231.83696,643,0,72847.12198991668,0.5477294921875,0.687255859375,0.3863677978515625,72847.11674091667,0.3497209880270254,-0.6154639847683642,-0.1026020094208288,3
1538158231.843959,644,0,72847.13176791667,0.5686492919921875,0.6889495849609375,0.4041900634765625,72847.13675191667,0.4265185643816404,-0.6505620510906275,-0.106878513499278,3
1538158231.853725,645,0,72847.14159291667,0.5867767333984375,0.672821044921875,0.4027862548828125,,,,,3
1538158231.894386,646,0,72847.15139391668,0.6076507568359375,0.6786956787109375,0.389312744140625,72847.14676091667,0.429563622772037,-0.6027812127090798,-0.1029442256209039,3
1538158231.895248,647,0,72847.16118891667,0.6363525390625,0.744415283203125,0.4065093994140625,72847.15676791668,0.3929824420387086,-0.5325691010980128,-0.08466801632412617,3
1538158231.895848,648,0,72847.17099591668,0.681915283203125,0.8517608642578125,0.4508819580078125,72847.16677191667,0.3057740363507558,-0.4227206303510784,-0.02672056048120103,3
1538158231.905134,649,0,72847.18079791668,0.724395751953125,0.9567108154296875,0.48602294921875,72847.17675291667,0.1925928858156963,-0.2828996131158472,0.05950327455174943,3
1538158231.906656,650,0,72847.19059291667,0.7363739013671875,1.01739501953125,0.4807891845703125,72847.19679191668,0.04581862129037726,-0.0430574558721831,0.1755302790276676,3
1538158231.911068,651,0,72847.20039891667,0.6986541748046875,1.004745483398438,0.453826904296875,,,,,3
1538158231.926374,652,0,72847.21020091667,0.6136627197265625,0.9038543701171875,0.43865966796875,72847.20679991668,0.09381890414574744,-0.00711916222599982,0.1629668165852188,3
1538158231.937139,653,0,72847.22000291667,0.525115966796875,0.7602081298828125,0.4509735107421875,72847.21679491668,0.1609625215488252,0.02596102693831043,0.06751432942681679,3
1538158231.975164,654,0,72847.22980491667,0.48419189453125,0.673431396484375,0.444183349609375,72847.22679891667,0.2218551672412689,0.05682919450120087,-0.03864033688817768,3
1538158231.976201,655,0,72847.23958691666,0.4662017822265625,0.6312408447265625,0.3999786376953125,72847.23681891667,0.2560597430178106,0.02312928775122917,-0.1286016521949453,3
1538158231.977836,656,0,72847.24940691667,0.439300537109375,0.60040283203125,0.3592376708984375,,,,,3
1538158231.978599,657,0,72847.25920891667,0.430511474609375,0.587860107421875,0.3766632080078125,72847.25682991667,0.3483393400534923,-0.2003429509039359,-0.3177622559977475,3
1538158231.989733,658,0,72847.26898791667,0.450469970703125,0.621826171875,0.4078369140625,72847.26683891666,0.3455962841307107,-0.3327814192813584,-0.4169500929010947,3
1538158231.990332,659,0,72847.27881191667,0.4785308837890625,0.678375244140625,0.42864990234375,,,,,3
1538158231.999188,660,0,72847.28861291667,0.543182373046875,0.7444305419921875,0.3856964111328125,72847.28682791667,0.3822296628214046,-0.7213137191385446,-0.5564299592006867,3
1538158232.010233,661,0,72847.29840691667,0.6066131591796875,0.84478759765625,0.3140716552734375,72847.29685791668,0.3869423926864088,-1.033874821527367,-0.6254210114519524,3
1538158232.019541,662,0,72847.30821591667,0.615570068359375,0.9708251953125,0.3014984130859375,,,,,3
1538158232.05901,663,0,72847.31801691667,0.5985260009765625,1.076522827148438,0.3255157470703125,72847.31684591668,0.4164464891389607,-1.179257051750902,-0.7465559588986426,3
1538158232.059909,664,0,72847.32779491667,0.6380615234375,1.18212890625,0.3801727294921875,72847.32685491667,0.3204933276956238,-0.8779038628096777,-0.8733972616130455,3
1538158232.060321,665,0,72847.33760791668,0.6608734130859375,1.255279541015625,0.3448638916015625,,,,,3
1538158232.06139,666,0,72847.34741791667,0.6946868896484375,1.226455688476562,0.2896728515625,72847.33688391667,0.2795349753946411,-0.557247283339232,-0.9731829781811155,3
1538158232.07101,667,0,72847.35721391666,0.7405853271484375,1.105010986328125,0.2489471435546875,72847.35689591667,0.4263081746555241,-0.2852290801213396,-0.9193820641554438,3
1538158232.077239,668,0,72847.36700991668,0.756744384765625,1.013916015625,0.19384765625,,,,,3
1538158232.087718,669,0,72847.37679791667,0.723114013671875,0.9152069091796875,0.18560791015625,72847.36690491668,0.5450910182274563,-0.1581350434194881,-0.8168335842725256,3
1538158232.134877,670,0,72847.38662391667,0.65167236328125,0.8206939697265625,0.22503662109375,72847.37690891667,0.6778964702030917,-0.07535946936597221,-0.8065045139846533,3
1538158232.140341,671,0,72847.39640491667,0.5904083251953125,0.744049072265625,0.2279815673828125,72847.38691391668,0.7761079922508158,-0.09042097691091533,-0.8234976122682309,3
1538158232.141432,672,0,72847.40621491667,0.5724334716796875,0.6912078857421875,0.203399658203125,72847.39689791667,0.9140725198901528,-0.2042873587944523,-0.8521268603026917,3
1538158232.142094,673,0,72847.41602391667,0.558990478515625,0.7165374755859375,0.17474365234375,72847.40690191668,1.077580490808876,-0.4389438087635141,-0.8593432279084794,3
1538158232.14282,674,0,72847.42582091667,0.560821533203125,0.7664031982421875,0.186126708984375,72847.41692791667,1.253669234717133,-0.6024821397186639,-0.8627028056236143,3
1538158232.14576,675,0,72847.43561691667,0.5545196533203125,0.829620361328125,0.20489501953125,72847.42694391667,1.388116791820911,-0.7277756132075128,-0.8635800508866864,3
1538158232.1585,676,0,72847.44541891667,0.5382232666015625,0.89031982421875,0.2280120849609375,72847.43694791668,1.465051787287774,-0.765088896924504,-0.8784932203589122,3
1538158232.165676,677,0,72847.45522091667,0.5077667236328125,0.9361572265625,0.2453460693359375,72847.44692691667,1.486973864116871,-0.7199797417485239,-0.9361426684758575,3
1538158232.175494,678,0,72847.46502291667,0.486236572265625,0.9800567626953125,0.23223876953125,72847.45696291667,1.456825282680519,-0.632534847355772,-1.009560427091053,3
1538158232.21343,679,0,72847.47482491667,0.4680938720703125,1.017532348632812,0.1986541748046875,72847.46696691668,1.381636255624312,-0.5437828735000094,-1.057878425064469,3
1538158232.214476,680,0,72847.48463991667,0.44683837890625,1.056732177734375,0.149688720703125,72847.47695391667,1.288030936997989,-0.4632768453274591,-1.07968651859891,3
1538158232.219855,681,0,72847.49444291666,0.429107666015625,1.083694458007812,0.105682373046875,72847.48698191668,1.195465849093451,-0.3838137110377838,-1.099345174817548,3
1538158232.220877,682,0,72847.50424391667,0.4120635986328125,1.085037231445312,0.0752410888671875,72847.49698591667,1.121196677877758,-0.3023774406964688,-1.134813154215224,3
1538158232.231371,683,0,72847.51404591667,0.39434814453125,1.060958862304688,0.05316162109375,72847.50698491668,1.066413856358174,-0.2285921658508424,-1.194529747970288,3
1538158232.237045,684,0,72847.52383991667,0.3591766357421875,1.035354614257812,0.0145721435546875,72847.52700591667,0.9965527493787789,-0.09609111318780304,-1.335817634333935,3
1538158232.244314,685,0,72847.53364891667,0.3245086669921875,1.008819580078125,-0.0107574462890625,,,,,3
1538158232.254065,686,0,72847.54344891667,0.2929534912109375,0.9966888427734375,-0.0177764892578125,72847.53698391667,0.9877579261949012,-0.09769726564122982,-1.398758517220759,3
1538158232.295546,687,0,72847.55322791667,0.2588653564453125,0.9867706298828125,-0.0181427001953125,72847.55702491668,0.9530926235497758,-0.2333120862507898,-1.499315218924407,3
1538158232.29632,688,0,72847.56304891667,0.2289276123046875,0.9763946533203125,-0.0191192626953125,,,,,3
1538158232.297272,689,0,72847.57284991667,0.1929931640625,0.9709014892578125,-0.027313232421875,72847.56701291667,0.9067296521325863,-0.3491151188790323,-1.519164823793203,3
1538158232.298269,690,0,72847.58264591667,0.1637725830078125,0.96826171875,-0.0516204833984375,72847.58704191667,0.8099876623743679,-0.4561813852351609,-1.514025189205459,3
1538158232.303589,691,0,72847.59245391667,0.1515045166015625,0.954986572265625,-0.0778961181640625,,,,,3
1538158232.312829,692,0,72847.60225591667,0.1591033935546875,0.9255523681640625,-0.08880615234375,,,,,3
1538158232.323095,693,0,72847.61202791666,0.184356689453125,0.8854827880859375,-0.0918426513671875,72847.60705991667,0.7705819329889014,-0.3642914086669579,-1.443732650129472,3
1538158232.340179,694,0,72847.62185991668,0.2191162109375,0.8453369140625,-0.0896453857421875,72847.61706391667,0.738501494497807,-0.2617205582308831,-1.364921457674648,3
1538158232.375474,695,0,72847.63165791667,0.259918212890625,0.814239501953125,-0.0889739990234375,72847.62706391668,0.6817814896012994,-0.1304251185933226,-1.279120266306693,3
1538158232.376485,696,0,72847.64145791667,0.2988433837890625,0.809478759765625,-0.1006317138671875,72847.63707991668,0.5857399112097718,0.1099683129959879,-1.217981810845635,3
1538158232.377452,697,0,72847.65126391668,0.3167724609375,0.83209228515625,-0.1134033203125,72847.64708391667,0.4461444637188703,0.4329554247363619,-1.179219501179532,3
1538158232.381598,698,0,72847.66106691667,0.32757568359375,0.8534393310546875,-0.1101531982421875,72847.65709091668,0.3122897262737437,0.727041113378869,-1.168949020435641,3
1538158232.385558,699,0,72847.67086391668,0.353759765625,0.8703155517578125,-0.093505859375,72847.67710291667,0.07166779546290436,1.292935680777588,-1.267295831066741,3
1538158232.390706,700,0,72847.68066691667,0.38427734375,0.8801422119140625,-0.055389404296875,,,,,3
1538158232.400975,701,0,72847.69047391666,0.40625,0.8810577392578125,-0.0052337646484375,,,,,3
1538158232.412818,702,0,72847.70027491667,0.3983306884765625,0.869842529296875,0.022247314453125,72847.68711091667,-0.04331098880795865,1.598124088004636,-1.320843478472747,3
1538158232.450702,703,0,72847.71007791666,0.3526763916015625,0.8712005615234375,0.0196990966796875,72847.70709791667,-0.1299191179862075,2.177660964403395,-1.304773964455209,3
1538158232.457117,704,0,72847.71987791666,0.2906494140625,0.8786163330078125,0.002227783203125,,,,,3
1538158232.458479,705,0,72847.72967891667,0.2343292236328125,0.8881378173828125,-0.0228729248046875,72847.71712991667,-0.09760591921584011,2.357932202803622,-1.193922014609532,3
1538158232.459832,706,0,72847.73948091667,0.1842193603515625,0.894683837890625,-0.0605010986328125,72847.73711391666,0.01028353023323197,2.370147057459379,-0.8817902137884303,3
1538158232.460556,707,0,72847.74928391667,0.1391143798828125,0.9043426513671875,-0.1025390625,,,,,3
1538158232.471883,708,0,72847.75908691667,0.10137939453125,0.91302490234375,-0.1417236328125,72847.74714991667,0.08399982920662528,2.17996806085573,-0.7837139803240822,3
1538158232.479491,709,0,72847.76888891667,0.0717926025390625,0.9208831787109375,-0.176727294921875,72847.76714491667,0.2821901470014501,1.554966497275466,-0.773792373682992,3
1538158232.488712,710,0,72847.77866191667,0.0510711669921875,0.929901123046875,-0.182891845703125,,,,,3
1538158232.529544,711,0,72847.78849491668,0.0523681640625,0.9517059326171875,-0.124176025390625,72847.77716891667,0.4489194775747329,1.167719705276461,-0.7574549456597919,3
1538158232.530839,712,0,72847.79829891668,0.0592193603515625,0.967376708984375,-0.0427703857421875,72847.79717591667,0.7468893866671206,0.7817019621205273,-0.5916808909695206,3
1538158232.531746,713,0,72847.80809991667,0.059600830078125,0.9696807861328125,0.0132598876953125,72847.80718891667,0.7935335878954224,0.8969934015033656,-0.5089617759311144,3
1538158232.532178,714,0,72847.81790491666,0.0762176513671875,0.98150634765625,0.0338287353515625,,,,,3
1538158232.54279,715,0,72847.82770691667,0.0635833740234375,0.9915313720703125,0.0230865478515625,72847.82719991668,0.7265034211547819,1.105402534716934,-0.4632677905797528,3
1538158232.558169,716,0,72847.83749991667,0.0690155029296875,0.9788970947265625,-0.003662109375,72847.83720791667,0.6626706456188908,0.9740192107634004,-0.4458880013058957,3
1538158232.559049,717,0,72847.84731191667,0.0758819580078125,0.9692840576171875,-0.00372314453125,,,,,3
1538158232.567629,718,0,72847.85711391667,0.061492919921875,0.940582275390625,-0.0072021484375,72847.84721491668,0.5741599541578892,0.837482936416673,-0.4127404341660064,3
1538158232.607688,719,0,72847.86689491667,0.0583953857421875,0.9365692138671875,-0.024871826171875,72847.85721891667,0.4937090534199036,0.6641801253247477,-0.3366153059866365,3
1538158232.608438,720,0,72847.87671791668,0.0436248779296875,0.9505157470703125,-0.0328369140625,72847.86722791666,0.4612813387226627,0.455812271108076,-0.2629309649463241,3
1538158232.609401,721,0,72847.88651091667,0.02996826171875,0.955718994140625,-0.04718017578125,72847.87723491667,0.4202952895463432,0.3205833425404684,-0.1984073654236663,3
1538158232.610325,722,0,72847.89631591667,0.012939453125,0.949127197265625,-0.0550537109375,72847.88723891666,0.3881866215476939,0.2380740845959605,-0.1714801436418751,3
1538158232.616722,723,0,72847.90612391668,-0.006561279296875,0.9531402587890625,-0.0577239990234375,72847.89724791667,0.3797023229469195,0.2147455923951934,-0.1703264622576528,3
1538158232.626473,724,0,72847.91592691667,-0.0112762451171875,0.968902587890625,-0.046234130859375,72847.90725491667,0.410708974886494,0.1966278411832754,-0.1773308422406702,3
1538158232.638589,725,0,72847.92573091667,-0.0009002685546875,0.98193359375,-0.043121337890625,72847.91725891667,0.4642379801648687,0.1900394469625283,-0.1991075104742481,3
1538158232.645595,726,0,72847.93550891666,0.0254364013671875,0.9944000244140625,-0.0371246337890625,72847.92723691667,0.5125732886853708,0.2246837106350421,-0.2382945943342191,3
1538158232.655916,727,0,72847.94533791667,0.070953369140625,1.00396728515625,-0.004852294921875,72847.93727491667,0.5398861361930055,0.2231246961329097,-0.2934073815128639,3
1538158232.68746,728,0,72847.95514191667,0.1081390380859375,0.979461669921875,0.029541015625,72847.94727891668,0.5365705006358569,0.1175748337014723,-0.3512496424927309,3
1538158232.688178,729,0,72847.96494491668,0.144134521484375,0.984649658203125,0.0712432861328125,72847.95727191668,0.518630382268647,-0.06868771820310569,-0.4182249481149156,3
1538158232.688673,730,0,72847.97473691667,0.1542510986328125,0.981597900390625,0.06640625,72847.96729391668,0.4401544817950641,0,-0.4557712584272888,3
1538158232.702617,731,0,72847.98453291667,0.15478515625,0.956939697265625,0.0147857666015625,72847.97729791667,0.3655199248778115,0.1706910490108846,-0.4769966523152203,3
1538158232.71332,732,0,72847.99433391666,0.192352294921875,0.9687042236328125,-0.0103912353515625,72847.99731391667,0.2513028046787111,0.3023311016935014,-0.4770251481388841,3
1538158232.716716,733,0,72848.00412591668,0.219757080078125,0.9547576904296875,-0.040863037109375,72848.00731791666,0.2014319174736693,0.2372911152354772,-0.3950067107832778,3
1538158232.724286,734,0,72848.013892125,0.2504119873046875,0.9594268798828125,-0.069244384765625,,,,,3
1538158232.769457,735,0,72848.023711125,0.2505340576171875,0.9785308837890625,-0.07940673828125,72848.01726412501,0.2103492460676906,0.08518227273062047,-0.3159936507178259,3
1538158232.77036,736,0,72848.03352712501,0.204925537109375,0.9796295166015625,-0.0821533203125,72848.037300125,0.263530975139919,-0.01334057284853393,-0.2944646564656254,3
1538158232.770841,737,0,72848.043301125,0.1515960693359375,0.9431915283203125,-0.11566162109375,,,,,3
1538158232.771332,738,0,72848.05312712501,0.1105194091796875,0.9179534912109375,-0.1443939208984375,72848.047309125,0.2548394826063364,0.006915963034826774,-0.2840511639711975,3
1538158232.774103,739,0,72848.06292712501,0.0778656005859375,0.914947509765625,-0.1432952880859375,72848.05731612501,0.256776133351042,0.01022840279866733,-0.2691395923956258,3
1538158232.784035,740,0,72848.072724125,0.051910400390625,0.9213714599609375,-0.1151275634765625,72848.067320125,0.2973067819809579,0.03452735090065931,-0.2784958099372922,3
1538158232.802085,741,0,72848.08252712501,0.0192108154296875,0.94171142578125,-0.0743865966796875,72848.077328125,0.3573163234559314,0.09462051563386129,-0.318819797266618,3
1538158232.806674,742,0,72848.092342125,-0.009674072265625,0.972320556640625,-0.0455169677734375,72848.09734012501,0.4166547483362049,0.3422870401601782,-0.5075942427113587,3
1538158232.812545,743,0,72848.10213312501,-0.0180511474609375,0.9998016357421875,-0.0590362548828125,,,,,3
1538158232.849067,744,0,72848.11193512501,-0.02288818359375,0.9936981201171875,-0.0966033935546875,,,,,3
1538158232.850016,745,0,72848.121740125,-0.0298309326171875,0.9737091064453125,-0.144134521484375,72848.117356125,0.393096425333364,0.4815035198279614,-0.6058390542727088,3
1538158232.850714,746,0,72848.131544125,-0.009857177734375,0.9881134033203125,-0.17864990234375,72848.127360125,0.3685127853108425,0.4095353197940961,-0.5863721456525566,3
1538158232.861894,747,0,72848.141361125,0.0318145751953125,1.031265258789062,-0.166839599609375,72848.137351125,0.3356397900793404,0.3098641191528995,-0.5806332998195448,3
1538158232.866919,748,0,72848.151159125,0.077178955078125,1.064208984375,-0.141998291015625,72848.157379125,0.3296711134442549,0.3657276514428376,-0.6237328336369512,3
1538158232.870963,749,0,72848.160949125,0.1227264404296875,1.066787719726562,-0.1603851318359375,,,,,3
1538158232.881301,750,0,72848.17077112501,0.1756439208984375,1.054000854492188,-0.2007598876953125,,,,,3
1538158232.891053,751,0,72848.18057512501,0.225311279296875,1.036209106445312,-0.240631103515625,72848.16738712501,0.3774556802513286,0.4230071864843709,-0.6226076480763927,3
1538158232.926444,752,0,72848.19037912501,0.2580413818359375,1.02056884765625,-0.2696075439453125,72848.187378125,0.545885172864518,0.6407264645527468,-0.5884209154791545,3
1538158232.927181,753,0,72848.200182125,0.26336669921875,1.015640258789062,-0.2891082763671875,72848.197407125,0.6537964602345286,0.8127970310082925,-0.5609046024642378,3
1538158232.92752,754,0,72848.209986125,0.25360107421875,1.029510498046875,-0.3018035888671875,,,,,3
1538158232.93033,755,0,72848.219790125,0.2334747314453125,1.073623657226562,-0.3134307861328125,72848.217395125,0.8571586368662875,0.9861416537293322,-0.5025861682814646,3
1538158232.940078,756,0,72848.229593125,0.195770263671875,1.124374389648438,-0.3198394775390625,,,,,3
1538158232.950057,757,0,72848.239397125,0.1551971435546875,1.194656372070312,-0.3285675048828125,72848.22742512501,0.8971044553208219,1.050051927252945,-0.4717579481349254,3
1538158232.959731,758,0,72848.24920012501,0.09326171875,1.265289306640625,-0.3390655517578125,72848.247418125,0.8920556345262497,1.264628408918918,-0.444653359824535,3
1538158232.969082,759,0,72848.25900212501,-0.0022430419921875,1.343704223632812,-0.386444091796875,,,,,3
1538158233.010283,760,0,72848.268807125,-0.1181488037109375,1.457244873046875,-0.4452056884765625,72848.257446125,0.9398678982086603,1.255139299638857,-0.434502721329698,3
1538158233.011489,761,0,72848.278611125,-0.2657928466796875,1.593307495117188,-0.4788970947265625,72848.27745412501,1.142120069298074,0.481826561268188,-0.6397163275512797,3
1538158233.012533,762,0,72848.288401125,-0.418304443359375,1.68011474609375,-0.435760498046875,72848.287465125,1.181387846939074,-0.006339654974933626,-0.8881644898575349,3
1538158233.013119,763,0,72848.298219125,-0.5526885986328125,1.692138671875,-0.3094329833984375,,,,,3
1538158233.020832,764,0,72848.30802312501,-0.645111083984375,1.5985107421875,-0.1870880126953125,72848.30747512501,0.7473426566846521,0.04224412647527291,-1.185983397716115,3
1538158233.038598,765,0,72848.31781012501,-0.685821533203125,1.436874389648438,-0.1517791748046875,72848.31748512501,0.2964311346145398,0.4066830742666212,-1.038849340127526,3
1538158233.039528,766,0,72848.327630125,-0.6646881103515625,1.293182373046875,-0.181304931640625,,,,,3
1538158233.047773,767,0,72848.33742912501,-0.501495361328125,1.239227294921875,-0.224609375,72848.32747612501,-0.1983847285544006,0.5524301575594966,-0.6646432490383124,3
1538158233.058942,768,0,72848.34721212501,-0.3308563232421875,1.215728759765625,-0.2457275390625,72848.337480125,-0.6536505190067924,0.3953433343450638,-0.336769236697643,3
1538158233.088515,769,0,72848.35703912501,-0.20635986328125,1.17962646484375,-0.198486328125,72848.34750412501,-0.9775431055177932,-0.06735161028421294,-0.2449844549924981,3
1538158233.089496,770,0,72848.366842125,-0.125946044921875,1.125137329101562,-0.1586456298828125,72848.35748812501,-1.245543397599083,-0.4742884838027187,-0.2041880228857923,3
1538158233.090426,771,0,72848.37663912501,-0.0797119140625,1.076278686523438,-0.1529693603515625,72848.36749212501,-1.477175029202033,-0.6729517790071416,-0.1262258461864857,3
